*FILE_COMMENT ""
*FILE_MD5 ""
*FILE_MEMO ""
*FILE_OPERATOR "Administrator"
*FILE_PACKAGE_NAME "Package_BB"
*FILE_PART_ID "GeneralMeasurement(BB)"
*FILE_SAMPLE ""
*FILE_SYSTEM_NAME "SmartLabXE"
*FILE_TYPE "RAS_RAW"
*FILE_USERGROUP "Administrators"
*FILE_VERSION "1"
*HW_ATTACHMENT_ID "ATT0022"
*HW_ATTACHMENT_NAME "RxRy"
*HW_ATTACHMENT_NAME_INTERNAL "RxRy"
*HW_COUNTER_ID-0 "CUT0041"
*HW_COUNTER_ID-2 "CMC0020"
*HW_COUNTER_MONOCHRO_ID "CMC0020"
*HW_COUNTER_MONOCHRO_NAME "None"
*HW_COUNTER_MONOCHRO_NAME_INTERNAL "None"
*HW_COUNTER_NAME_INTERNAL "DteX250(H)"
*HW_COUNTER_NAME-0 "DteX250(H)"
*HW_COUNTER_NAME-1 "None"
*HW_COUNTER_NAME-2 "None"
*HW_COUNTER_PIXEL_SIZE "0.075"
*HW_COUNTER_SELECT_NAME "DteX250(H)"
*HW_EXTERNAL_CONTROLLER_NAME "None"
*HW_EXTERNAL_CONTROLLER_NAME_INTERNAL "None"
*HW_GONIOMETER_ID "GON0022"
*HW_GONIOMETER_NAME "StandardInplane"
*HW_GONIOMETER_NAME_INTERNAL "StandardInplaneEnc"
*HW_GONIOMETER_RADIUS-0 "90.0"
*HW_GONIOMETER_RADIUS-1 "114.0"
*HW_GONIOMETER_RADIUS-2 "173.5"
*HW_GONIOMETER_RADIUS-3 "300.0"
*HW_GONIOMETER_RADIUS-4 "187.0"
*HW_GONIOMETER_RADIUS-5 "300.0"
*HW_GONIOMETER_RADIUS-6 "113.0"
*HW_GONIOMETER_RADIUS-7 "331.0"
*HW_I_CBO_ID "CBO0021"
*HW_I_CBO_NAME "CBO"
*HW_I_CBO_NAME_INTERNAL "CBO"
*HW_I_MONOCHRO_ID "ISO0021"
*HW_I_MONOCHRO_NAME "IPS_adaptor"
*HW_I_MONOCHRO_NAME_INTERNAL "IPS_adaptor"
*HW_I_OPT_ID-1 "CBO0021"
*HW_I_PRIMARY_NAME_INTERNAL "PrimaryUnit"
*HW_I_SLIT_NAME_INTERNAL "AutoIntegrated"
*HW_R_ATTENUATER_AUTOMODE "0"
*HW_R_ATTENUATOR_NAME_INTERNAL "AutoSlim(Cu)"
*HW_R_OPT_ID-0 "RSS0022"
*HW_R_OPT_ID-1 "RCR0022"
*HW_R_OPT_ID-2 "RSO0021"
*HW_R_OPT_ID-3 "RRS0022"
*HW_R_ROD_ID "RCR0022"
*HW_R_ROD_NAME "ROD_adaptor"
*HW_R_ROD_NAME_INTERNAL "ROD_adaptor"
*HW_R_RPS_ID "RSO0021"
*HW_R_RPS_NAME "RPS_adaptor"
*HW_R_RPS_NAME_INTERNAL "RPS_adaptor"
*HW_R_RS_ID "RRS0022"
*HW_R_RS_NAME "Virtual"
*HW_R_RS_NAME_INTERNAL "Virtual"
*HW_R_SS_ID "RSS0022"
*HW_R_SS_NAME "Auto_Zr"
*HW_R_SS_NAME_INTERNAL "Auto_Zr"
*HW_ROBOT_NAME "No_unit"
*HW_ROBOT_NAME_INTERNAL "No_unit"
*HW_SAMPLE_CAMERA_NAME "None"
*HW_SAMPLE_CAMERA_NAME_INTERNAL "None"
*HW_SAMPLE_HOLDER_ID "SMP0022"
*HW_SAMPLE_HOLDER_NAME "Z_Phi"
*HW_SAMPLE_HOLDER_NAME_INTERNAL "Z_Phi"
*HW_SAMPLE_NAME "PowderSample"
*HW_SAMPLE_NAME_INTERNAL "PowderSample"
*HW_SAMPLE_PLATE_NAME "HeightReference"
*HW_SAMPLE_PLATE_NAME_INTERNAL "HeightReference"
*HW_SAMPLE_SPACER_NAME "None"
*HW_SAMPLE_SPACER_NAME_INTERNAL "None"
*HW_USERINFO_CATALOG_NO ""
*HW_USERINFO_INSTRUMENT_ID ""
*HW_USERINFO_INSTRUMENT_NAME ""
*HW_USERINFO_MODEL ""
*HW_USERINFO_ORDER_NO ""
*HW_USERINFO_SERIAL_NO ""
*HW_USERINFO_VERIFY_INSTRUMENT_ID "00-07-fe-01-22-e6"
*HW_VER_RCD_COUNTER_UNIT "N/A"
*HW_VER_RCD_CPU "3.3.7"
*HW_VER_RCD_FPGA "1.2.3"
*HW_VER_RCD_GONIO_UNIT "6.3.0"
*HW_VER_RCD_INCIDENT_UNIT "6.4.0"
*HW_VER_RCD_RECEIVING_UNIT "8.0.1"
*HW_VER_RCD_TYPE "RINC"
*HW_VER_XGC_CPU "3.3.7"
*HW_VER_XGC_CW "3.0.0"
*HW_VER_XGC_HV "3.0.0"
*HW_VER_XGC_RS1 "3.0.0"
*HW_VER_XGC_RS2 "N/A"
*HW_VER_XGC_RT "N/A"
*HW_VER_XGC_TYPE "RINC"
*HW_XG_CURRENT_UNIT "mA"
*HW_XG_FOCUS "0.4mm x 12mm"
*HW_XG_FOCUS_TYPE "LongFineToshiba"
*HW_XG_TARGET_ATOMIC_NUMBER "29"
*HW_XG_TARGET_NAME "Cu"
*HW_XG_TYPE "Hermetic"
*HW_XG_VOLTAGE_UNIT "kV"
*HW_XG_WAVE_LENGTH_ALPHA1 "1.540593"
*HW_XG_WAVE_LENGTH_ALPHA2 "1.544414"
*HW_XG_WAVE_LENGTH_BETA "1.392246"
*HW_XG_WAVE_LENGTH_UNIT "Angstrom"
*MEAS_COND_AXIS_NAME_INTERNAL-0 "ThetaS"
*MEAS_COND_AXIS_NAME_INTERNAL-1 "ThetaD"
*MEAS_COND_AXIS_NAME_INTERNAL-10 "PrimaryGeometry"
*MEAS_COND_AXIS_NAME_INTERNAL-11 "PrimaryMirrorType"
*MEAS_COND_AXIS_NAME_INTERNAL-12 "CBOType"
*MEAS_COND_AXIS_NAME_INTERNAL-13 "CBO-M"
*MEAS_COND_AXIS_NAME_INTERNAL-14 "CBO"
*MEAS_COND_AXIS_NAME_INTERNAL-15 "IncidentSollerSlit"
*MEAS_COND_AXIS_NAME_INTERNAL-16 "IncidentSlitBox"
*MEAS_COND_AXIS_NAME_INTERNAL-17 "IncidentSlitBox"
*MEAS_COND_AXIS_NAME_INTERNAL-18 "IncidentSlitBox"
*MEAS_COND_AXIS_NAME_INTERNAL-19 "Zs"
*MEAS_COND_AXIS_NAME_INTERNAL-2 "TwoTheta"
*MEAS_COND_AXIS_NAME_INTERNAL-20 "IncidentAxdSlit"
*MEAS_COND_AXIS_NAME_INTERNAL-21 "IncidentAxdSlit"
*MEAS_COND_AXIS_NAME_INTERNAL-22 "IncidentAxdSlit"
*MEAS_COND_AXIS_NAME_INTERNAL-23 "InFilter"
*MEAS_COND_AXIS_NAME_INTERNAL-24 "Z"
*MEAS_COND_AXIS_NAME_INTERNAL-25 "Phi"
*MEAS_COND_AXIS_NAME_INTERNAL-26 "Beta"
*MEAS_COND_AXIS_NAME_INTERNAL-27 "TwoThetaChiPhi"
*MEAS_COND_AXIS_NAME_INTERNAL-28 "AlphaI"
*MEAS_COND_AXIS_NAME_INTERNAL-29 "BetaI"
*MEAS_COND_AXIS_NAME_INTERNAL-3 "Omega"
*MEAS_COND_AXIS_NAME_INTERNAL-30 "TwoThetaB"
*MEAS_COND_AXIS_NAME_INTERNAL-31 "DirectBeamStop"
*MEAS_COND_AXIS_NAME_INTERNAL-32 "KnifeEdge"
*MEAS_COND_AXIS_NAME_INTERNAL-33 "Rx"
*MEAS_COND_AXIS_NAME_INTERNAL-34 "Ry"
*MEAS_COND_AXIS_NAME_INTERNAL-35 "ReceivingSlitBox1"
*MEAS_COND_AXIS_NAME_INTERNAL-36 "ReceivingSlitBox1"
*MEAS_COND_AXIS_NAME_INTERNAL-37 "ReceivingSlitBox1"
*MEAS_COND_AXIS_NAME_INTERNAL-38 "Zr"
*MEAS_COND_AXIS_NAME_INTERNAL-39 "Filter"
*MEAS_COND_AXIS_NAME_INTERNAL-4 "TwoThetaTheta"
*MEAS_COND_AXIS_NAME_INTERNAL-40 "PSA"
*MEAS_COND_AXIS_NAME_INTERNAL-41 "ReceivingSollerSlit"
*MEAS_COND_AXIS_NAME_INTERNAL-42 "ReceivingSlitBox2"
*MEAS_COND_AXIS_NAME_INTERNAL-43 "ReceivingSlitBox2"
*MEAS_COND_AXIS_NAME_INTERNAL-44 "ReceivingSlitBox2"
*MEAS_COND_AXIS_NAME_INTERNAL-45 "Attenuator"
*MEAS_COND_AXIS_NAME_INTERNAL-46 "PHA"
*MEAS_COND_AXIS_NAME_INTERNAL-47 "DedicatedHolder"
*MEAS_COND_AXIS_NAME_INTERNAL-48 "Target_TargetTime"
*MEAS_COND_AXIS_NAME_INTERNAL-49 "Target_XrayOnTime"
*MEAS_COND_AXIS_NAME_INTERNAL-5 "TwoThetaOmega"
*MEAS_COND_AXIS_NAME_INTERNAL-50 "Target_TMPTime"
*MEAS_COND_AXIS_NAME_INTERNAL-51 "Target_RPTime"
*MEAS_COND_AXIS_NAME_INTERNAL-52 "Target_FilamentTime"
*MEAS_COND_AXIS_NAME_INTERNAL-53 "Target_IG"
*MEAS_COND_AXIS_NAME_INTERNAL-54 "Target_GP"
*MEAS_COND_AXIS_NAME_INTERNAL-55 "Target_FC"
*MEAS_COND_AXIS_NAME_INTERNAL-56 "HVPS_HVPSTime"
*MEAS_COND_AXIS_NAME_INTERNAL-57 "HVPS_Type1Time"
*MEAS_COND_AXIS_NAME_INTERNAL-58 "HVPS_Type2Time"
*MEAS_COND_AXIS_NAME_INTERNAL-59 "HVPS_Type3Time"
*MEAS_COND_AXIS_NAME_INTERNAL-6 "OmegaTwoTheta"
*MEAS_COND_AXIS_NAME_INTERNAL-60 "CW_IERTime"
*MEAS_COND_AXIS_NAME_INTERNAL-61 "CW_ECTime"
*MEAS_COND_AXIS_NAME_INTERNAL-62 "CW_Flow1"
*MEAS_COND_AXIS_NAME_INTERNAL-63 "CW_Temperature1"
*MEAS_COND_AXIS_NAME_INTERNAL-64 "CW_Pressure1"
*MEAS_COND_AXIS_NAME_INTERNAL-65 "CW_PressureIn"
*MEAS_COND_AXIS_NAME_INTERNAL-66 "CW_PressureOut"
*MEAS_COND_AXIS_NAME_INTERNAL-67 "CW_Flow2"
*MEAS_COND_AXIS_NAME_INTERNAL-68 "CW_Temperature2"
*MEAS_COND_AXIS_NAME_INTERNAL-69 "CW_Pressure2"
*MEAS_COND_AXIS_NAME_INTERNAL-7 "TwoThetaChi"
*MEAS_COND_AXIS_NAME_INTERNAL-70 "RE_EnclosureTemp"
*MEAS_COND_AXIS_NAME_INTERNAL-71 "RE_EnclosureHummidity"
*MEAS_COND_AXIS_NAME_INTERNAL-72 "RE_CabinetTemp"
*MEAS_COND_AXIS_NAME_INTERNAL-73 "RE_RPTemp"
*MEAS_COND_AXIS_NAME_INTERNAL-74 "RE_ShutterAXrayOnTime"
*MEAS_COND_AXIS_NAME_INTERNAL-75 "RE_ShutterATimes"
*MEAS_COND_AXIS_NAME_INTERNAL-76 "RE_ShutterAOpenCloseTime"
*MEAS_COND_AXIS_NAME_INTERNAL-77 "RE_ShutterACloseOpenTime"
*MEAS_COND_AXIS_NAME_INTERNAL-78 "RE_ShutterBXrayOnTime"
*MEAS_COND_AXIS_NAME_INTERNAL-79 "RE_ShutterBTimes"
*MEAS_COND_AXIS_NAME_INTERNAL-8 "Ts"
*MEAS_COND_AXIS_NAME_INTERNAL-80 "RE_ShutterBOpenCloseTime"
*MEAS_COND_AXIS_NAME_INTERNAL-81 "RE_ShutterBCloseOpenTime"
*MEAS_COND_AXIS_NAME_INTERNAL-82 "RE_XrayWarningRamp"
*MEAS_COND_AXIS_NAME_INTERNAL-83 "RE_ShutterAInstallation"
*MEAS_COND_AXIS_NAME_INTERNAL-84 "RE_ShutterARamp"
*MEAS_COND_AXIS_NAME_INTERNAL-85 "RE_ShutterBInstallation"
*MEAS_COND_AXIS_NAME_INTERNAL-86 "RE_ShutterBRamp"
*MEAS_COND_AXIS_NAME_INTERNAL-87 "RE_ExtShutterCLS"
*MEAS_COND_AXIS_NAME_INTERNAL-88 "RE_ExtXrayOFF"
*MEAS_COND_AXIS_NAME_INTERNAL-89 "RE_ExtSafetyCircuit"
*MEAS_COND_AXIS_NAME_INTERNAL-9 "Ma"
*MEAS_COND_AXIS_NAME_INTERNAL-90 "Version_CPU"
*MEAS_COND_AXIS_NAME_INTERNAL-91 "Version_RS1"
*MEAS_COND_AXIS_NAME_INTERNAL-92 "Version_RS2"
*MEAS_COND_AXIS_NAME_INTERNAL-93 "Version_HV"
*MEAS_COND_AXIS_NAME_INTERNAL-94 "Version_CW"
*MEAS_COND_AXIS_NAME_INTERNAL-95 "Version_RT"
*MEAS_COND_AXIS_NAME_INTERNAL-96 "IncidentPrimary"
*MEAS_COND_AXIS_NAME_INTERNAL-97 "IncidentMonochromator"
*MEAS_COND_AXIS_NAME_INTERNAL-98 "ReceivingOptics"
*MEAS_COND_AXIS_NAME_INTERNAL-99 "CounterMonochromatorKind"
*MEAS_COND_AXIS_NAME-0 "ThetaS"
*MEAS_COND_AXIS_NAME-1 "ThetaD"
*MEAS_COND_AXIS_NAME-10 "PrimaryGeometry"
*MEAS_COND_AXIS_NAME-11 "PrimaryMirrorType"
*MEAS_COND_AXIS_NAME-12 "CBOType"
*MEAS_COND_AXIS_NAME-13 "CBO-M"
*MEAS_COND_AXIS_NAME-14 "CBO"
*MEAS_COND_AXIS_NAME-15 "IncidentSollerSlit"
*MEAS_COND_AXIS_NAME-16 "IncidentSlitBox"
*MEAS_COND_AXIS_NAME-17 "IncidentSlitBox-_Axis"
*MEAS_COND_AXIS_NAME-18 "SlitDS"
*MEAS_COND_AXIS_NAME-19 "Zs"
*MEAS_COND_AXIS_NAME-2 "TwoTheta"
*MEAS_COND_AXIS_NAME-20 "IncidentAxdSlit"
*MEAS_COND_AXIS_NAME-21 "LLS"
*MEAS_COND_AXIS_NAME-22 "DHLSlit"
*MEAS_COND_AXIS_NAME-23 "InFilter"
*MEAS_COND_AXIS_NAME-24 "Z"
*MEAS_COND_AXIS_NAME-25 "Phi"
*MEAS_COND_AXIS_NAME-26 "Beta"
*MEAS_COND_AXIS_NAME-27 "TwoThetaChiPhi"
*MEAS_COND_AXIS_NAME-28 "AlphaI"
*MEAS_COND_AXIS_NAME-29 "BetaI"
*MEAS_COND_AXIS_NAME-3 "Omega"
*MEAS_COND_AXIS_NAME-30 "TwoThetaB"
*MEAS_COND_AXIS_NAME-31 "DirectBeamStop"
*MEAS_COND_AXIS_NAME-32 "KnifeEdge"
*MEAS_COND_AXIS_NAME-33 "Rx"
*MEAS_COND_AXIS_NAME-34 "Ry"
*MEAS_COND_AXIS_NAME-35 "ReceivingSlitBox1"
*MEAS_COND_AXIS_NAME-36 "ReceivingSlitBox1-_Axis"
*MEAS_COND_AXIS_NAME-37 "SlitSS"
*MEAS_COND_AXIS_NAME-38 "Zr"
*MEAS_COND_AXIS_NAME-39 "Filter"
*MEAS_COND_AXIS_NAME-4 "TwoThetaTheta"
*MEAS_COND_AXIS_NAME-40 "PSA"
*MEAS_COND_AXIS_NAME-41 "ReceivingSollerSlit"
*MEAS_COND_AXIS_NAME-42 "ReceivingSlitBox2"
*MEAS_COND_AXIS_NAME-43 "ReceivingSlitBox2-_Axis"
*MEAS_COND_AXIS_NAME-44 "SlitRS"
*MEAS_COND_AXIS_NAME-45 "Attenuator"
*MEAS_COND_AXIS_NAME-46 "PHA"
*MEAS_COND_AXIS_NAME-47 "DedicatedHolder"
*MEAS_COND_AXIS_NAME-48 "Target_TargetTime"
*MEAS_COND_AXIS_NAME-49 "Target_XrayOnTime"
*MEAS_COND_AXIS_NAME-5 "TwoThetaOmega"
*MEAS_COND_AXIS_NAME-50 "Target_TMPTime"
*MEAS_COND_AXIS_NAME-51 "Target_RPTime"
*MEAS_COND_AXIS_NAME-52 "Target_FilamentTime"
*MEAS_COND_AXIS_NAME-53 "Target_IG"
*MEAS_COND_AXIS_NAME-54 "Target_GP"
*MEAS_COND_AXIS_NAME-55 "Target_FC"
*MEAS_COND_AXIS_NAME-56 "HVPS_HVPSTime"
*MEAS_COND_AXIS_NAME-57 "HVPS_Type1Time"
*MEAS_COND_AXIS_NAME-58 "HVPS_Type2Time"
*MEAS_COND_AXIS_NAME-59 "HVPS_Type3Time"
*MEAS_COND_AXIS_NAME-6 "OmegaTwoTheta"
*MEAS_COND_AXIS_NAME-60 "CW_IERTime"
*MEAS_COND_AXIS_NAME-61 "CW_ECTime"
*MEAS_COND_AXIS_NAME-62 "CW_Flow1"
*MEAS_COND_AXIS_NAME-63 "CW_Temperature1"
*MEAS_COND_AXIS_NAME-64 "CW_Pressure1"
*MEAS_COND_AXIS_NAME-65 "CW_PressureIn"
*MEAS_COND_AXIS_NAME-66 "CW_PressureOut"
*MEAS_COND_AXIS_NAME-67 "CW_Flow2"
*MEAS_COND_AXIS_NAME-68 "CW_Temperature2"
*MEAS_COND_AXIS_NAME-69 "CW_Pressure2"
*MEAS_COND_AXIS_NAME-7 "TwoThetaChi"
*MEAS_COND_AXIS_NAME-70 "RE_EnclosureTemp"
*MEAS_COND_AXIS_NAME-71 "RE_EnclosureHummidity"
*MEAS_COND_AXIS_NAME-72 "RE_CabinetTemp"
*MEAS_COND_AXIS_NAME-73 "RE_RPTemp"
*MEAS_COND_AXIS_NAME-74 "RE_ShutterAXrayOnTime"
*MEAS_COND_AXIS_NAME-75 "RE_ShutterATimes"
*MEAS_COND_AXIS_NAME-76 "RE_ShutterAOpenCloseTime"
*MEAS_COND_AXIS_NAME-77 "RE_ShutterACloseOpenTime"
*MEAS_COND_AXIS_NAME-78 "RE_ShutterBXrayOnTime"
*MEAS_COND_AXIS_NAME-79 "RE_ShutterBTimes"
*MEAS_COND_AXIS_NAME-8 "Ts"
*MEAS_COND_AXIS_NAME-80 "RE_ShutterBOpenCloseTime"
*MEAS_COND_AXIS_NAME-81 "RE_ShutterBCloseOpenTime"
*MEAS_COND_AXIS_NAME-82 "RE_XrayWarningRamp"
*MEAS_COND_AXIS_NAME-83 "RE_ShutterAInstallation"
*MEAS_COND_AXIS_NAME-84 "RE_ShutterARamp"
*MEAS_COND_AXIS_NAME-85 "RE_ShutterBInstallation"
*MEAS_COND_AXIS_NAME-86 "RE_ShutterBRamp"
*MEAS_COND_AXIS_NAME-87 "RE_ExtShutterCLS"
*MEAS_COND_AXIS_NAME-88 "RE_ExtXrayOFF"
*MEAS_COND_AXIS_NAME-89 "RE_ExtSafetyCircuit"
*MEAS_COND_AXIS_NAME-9 "Ma"
*MEAS_COND_AXIS_NAME-90 "Version_CPU"
*MEAS_COND_AXIS_NAME-91 "Version_RS1"
*MEAS_COND_AXIS_NAME-92 "Version_RS2"
*MEAS_COND_AXIS_NAME-93 "Version_HV"
*MEAS_COND_AXIS_NAME-94 "Version_CW"
*MEAS_COND_AXIS_NAME-95 "Version_RT"
*MEAS_COND_AXIS_NAME-96 "IncidentPrimary"
*MEAS_COND_AXIS_NAME-97 "IncidentMonochromator"
*MEAS_COND_AXIS_NAME-98 "ReceivingOptics"
*MEAS_COND_AXIS_NAME-99 "CounterMonochromatorKind"
*MEAS_COND_AXIS_OFFSET-0 "0.5771"
*MEAS_COND_AXIS_OFFSET-1 "0.1626"
*MEAS_COND_AXIS_OFFSET-10 "0"
*MEAS_COND_AXIS_OFFSET-11 "0"
*MEAS_COND_AXIS_OFFSET-12 "0"
*MEAS_COND_AXIS_OFFSET-13 "0"
*MEAS_COND_AXIS_OFFSET-14 "0"
*MEAS_COND_AXIS_OFFSET-15 "0"
*MEAS_COND_AXIS_OFFSET-16 "0"
*MEAS_COND_AXIS_OFFSET-17 "0"
*MEAS_COND_AXIS_OFFSET-18 "0"
*MEAS_COND_AXIS_OFFSET-19 "0"
*MEAS_COND_AXIS_OFFSET-2 "0.7397"
*MEAS_COND_AXIS_OFFSET-20 "0"
*MEAS_COND_AXIS_OFFSET-21 "0"
*MEAS_COND_AXIS_OFFSET-22 "0"
*MEAS_COND_AXIS_OFFSET-23 "0"
*MEAS_COND_AXIS_OFFSET-24 "0"
*MEAS_COND_AXIS_OFFSET-25 "0"
*MEAS_COND_AXIS_OFFSET-26 "0"
*MEAS_COND_AXIS_OFFSET-27 "0"
*MEAS_COND_AXIS_OFFSET-28 "0"
*MEAS_COND_AXIS_OFFSET-29 "0"
*MEAS_COND_AXIS_OFFSET-3 "0.5771"
*MEAS_COND_AXIS_OFFSET-30 "0"
*MEAS_COND_AXIS_OFFSET-31 "0"
*MEAS_COND_AXIS_OFFSET-32 "0"
*MEAS_COND_AXIS_OFFSET-33 "0"
*MEAS_COND_AXIS_OFFSET-34 "0"
*MEAS_COND_AXIS_OFFSET-35 "0"
*MEAS_COND_AXIS_OFFSET-36 "0"
*MEAS_COND_AXIS_OFFSET-37 "0"
*MEAS_COND_AXIS_OFFSET-38 "0"
*MEAS_COND_AXIS_OFFSET-39 "0"
*MEAS_COND_AXIS_OFFSET-4 "0"
*MEAS_COND_AXIS_OFFSET-40 "0"
*MEAS_COND_AXIS_OFFSET-41 "0"
*MEAS_COND_AXIS_OFFSET-42 "0"
*MEAS_COND_AXIS_OFFSET-43 "0"
*MEAS_COND_AXIS_OFFSET-44 "0"
*MEAS_COND_AXIS_OFFSET-45 "0"
*MEAS_COND_AXIS_OFFSET-46 "0"
*MEAS_COND_AXIS_OFFSET-47 "0"
*MEAS_COND_AXIS_OFFSET-48 "0"
*MEAS_COND_AXIS_OFFSET-49 "0"
*MEAS_COND_AXIS_OFFSET-5 "0"
*MEAS_COND_AXIS_OFFSET-50 "0"
*MEAS_COND_AXIS_OFFSET-51 "0"
*MEAS_COND_AXIS_OFFSET-52 "0"
*MEAS_COND_AXIS_OFFSET-53 "0"
*MEAS_COND_AXIS_OFFSET-54 "0"
*MEAS_COND_AXIS_OFFSET-55 "0"
*MEAS_COND_AXIS_OFFSET-56 "0"
*MEAS_COND_AXIS_OFFSET-57 "0"
*MEAS_COND_AXIS_OFFSET-58 "0"
*MEAS_COND_AXIS_OFFSET-59 "0"
*MEAS_COND_AXIS_OFFSET-6 "0"
*MEAS_COND_AXIS_OFFSET-60 "0"
*MEAS_COND_AXIS_OFFSET-61 "0"
*MEAS_COND_AXIS_OFFSET-62 "0"
*MEAS_COND_AXIS_OFFSET-63 "0"
*MEAS_COND_AXIS_OFFSET-64 "0"
*MEAS_COND_AXIS_OFFSET-65 "0"
*MEAS_COND_AXIS_OFFSET-66 "0"
*MEAS_COND_AXIS_OFFSET-67 "0"
*MEAS_COND_AXIS_OFFSET-68 "0"
*MEAS_COND_AXIS_OFFSET-69 "0"
*MEAS_COND_AXIS_OFFSET-7 "0"
*MEAS_COND_AXIS_OFFSET-70 "0"
*MEAS_COND_AXIS_OFFSET-71 "0"
*MEAS_COND_AXIS_OFFSET-72 "0"
*MEAS_COND_AXIS_OFFSET-73 "0"
*MEAS_COND_AXIS_OFFSET-74 "0"
*MEAS_COND_AXIS_OFFSET-75 "0"
*MEAS_COND_AXIS_OFFSET-76 "0"
*MEAS_COND_AXIS_OFFSET-77 "0"
*MEAS_COND_AXIS_OFFSET-78 "0"
*MEAS_COND_AXIS_OFFSET-79 "0"
*MEAS_COND_AXIS_OFFSET-8 "0"
*MEAS_COND_AXIS_OFFSET-80 "0"
*MEAS_COND_AXIS_OFFSET-81 "0"
*MEAS_COND_AXIS_OFFSET-82 "0"
*MEAS_COND_AXIS_OFFSET-83 "0"
*MEAS_COND_AXIS_OFFSET-84 "0"
*MEAS_COND_AXIS_OFFSET-85 "0"
*MEAS_COND_AXIS_OFFSET-86 "0"
*MEAS_COND_AXIS_OFFSET-87 "0"
*MEAS_COND_AXIS_OFFSET-88 "0"
*MEAS_COND_AXIS_OFFSET-89 "0"
*MEAS_COND_AXIS_OFFSET-9 "0"
*MEAS_COND_AXIS_OFFSET-90 "0"
*MEAS_COND_AXIS_OFFSET-91 "0"
*MEAS_COND_AXIS_OFFSET-92 "0"
*MEAS_COND_AXIS_OFFSET-93 "0"
*MEAS_COND_AXIS_OFFSET-94 "0"
*MEAS_COND_AXIS_OFFSET-95 "0"
*MEAS_COND_AXIS_OFFSET-96 "0"
*MEAS_COND_AXIS_OFFSET-97 "0"
*MEAS_COND_AXIS_OFFSET-98 "0"
*MEAS_COND_AXIS_OFFSET-99 "0"
*MEAS_COND_AXIS_POSITION-0 "0.0000"
*MEAS_COND_AXIS_POSITION-1 "0.0000"
*MEAS_COND_AXIS_POSITION-10 "Left"
*MEAS_COND_AXIS_POSITION-11 "Ka1"
*MEAS_COND_AXIS_POSITION-12 "Type2"
*MEAS_COND_AXIS_POSITION-13 "0"
*MEAS_COND_AXIS_POSITION-14 "BB"
*MEAS_COND_AXIS_POSITION-15 "Soller_slit_2.5deg"
*MEAS_COND_AXIS_POSITION-16 "1/2deg"
*MEAS_COND_AXIS_POSITION-17 "1.514375"
*MEAS_COND_AXIS_POSITION-18 "1/2deg"
*MEAS_COND_AXIS_POSITION-19 "0.6937500"
*MEAS_COND_AXIS_POSITION-2 "0.0000"
*MEAS_COND_AXIS_POSITION-20 "10mm"
*MEAS_COND_AXIS_POSITION-21 "10mm"
*MEAS_COND_AXIS_POSITION-22 "10mm"
*MEAS_COND_AXIS_POSITION-23 "None"
*MEAS_COND_AXIS_POSITION-24 "0.01228"
*MEAS_COND_AXIS_POSITION-25 "0.000"
*MEAS_COND_AXIS_POSITION-26 "0.000"
*MEAS_COND_AXIS_POSITION-27 "0.000"
*MEAS_COND_AXIS_POSITION-28 "90.00"
*MEAS_COND_AXIS_POSITION-29 "0.000"
*MEAS_COND_AXIS_POSITION-3 "0.0000"
*MEAS_COND_AXIS_POSITION-30 "0.0000"
*MEAS_COND_AXIS_POSITION-31 "None"
*MEAS_COND_AXIS_POSITION-32 "None"
*MEAS_COND_AXIS_POSITION-33 "0.00000"
*MEAS_COND_AXIS_POSITION-34 "0.00000"
*MEAS_COND_AXIS_POSITION-35 "Open"
*MEAS_COND_AXIS_POSITION-36 "20.000000"
*MEAS_COND_AXIS_POSITION-37 "Open"
*MEAS_COND_AXIS_POSITION-38 "-0.2296875"
*MEAS_COND_AXIS_POSITION-39 "None"
*MEAS_COND_AXIS_POSITION-4 "0.0000"
*MEAS_COND_AXIS_POSITION-40 "PSA_open"
*MEAS_COND_AXIS_POSITION-41 "Soller_slit_2.5deg"
*MEAS_COND_AXIS_POSITION-42 "Open"
*MEAS_COND_AXIS_POSITION-43 "0.000"
*MEAS_COND_AXIS_POSITION-44 "Open"
*MEAS_COND_AXIS_POSITION-45 "Open"
*MEAS_COND_AXIS_POSITION-46 "36"
*MEAS_COND_AXIS_POSITION-47 "None"
*MEAS_COND_AXIS_POSITION-5 "0.0000"
*MEAS_COND_AXIS_POSITION-6 "0.0000"
*MEAS_COND_AXIS_POSITION-7 "0.0000"
*MEAS_COND_AXIS_POSITION-8 "-4.0000000"
*MEAS_COND_AXIS_POSITION-9 "0"
*MEAS_COND_AXIS_POSITION-96 "PrimaryUnit"
*MEAS_COND_AXIS_POSITION-97 "IPS_adaptor"
*MEAS_COND_AXIS_POSITION-98 "PSA_open"
*MEAS_COND_AXIS_POSITION-99 "None"
*MEAS_COND_AXIS_UNIT-0 "deg"
*MEAS_COND_AXIS_UNIT-1 "deg"
*MEAS_COND_AXIS_UNIT-10 ""
*MEAS_COND_AXIS_UNIT-11 ""
*MEAS_COND_AXIS_UNIT-12 ""
*MEAS_COND_AXIS_UNIT-13 "pulse"
*MEAS_COND_AXIS_UNIT-14 ""
*MEAS_COND_AXIS_UNIT-15 ""
*MEAS_COND_AXIS_UNIT-16 ""
*MEAS_COND_AXIS_UNIT-17 "mm"
*MEAS_COND_AXIS_UNIT-18 ""
*MEAS_COND_AXIS_UNIT-19 "mm"
*MEAS_COND_AXIS_UNIT-2 "deg"
*MEAS_COND_AXIS_UNIT-20 ""
*MEAS_COND_AXIS_UNIT-21 ""
*MEAS_COND_AXIS_UNIT-22 ""
*MEAS_COND_AXIS_UNIT-23 ""
*MEAS_COND_AXIS_UNIT-24 "mm"
*MEAS_COND_AXIS_UNIT-25 "deg"
*MEAS_COND_AXIS_UNIT-26 "deg"
*MEAS_COND_AXIS_UNIT-27 "deg"
*MEAS_COND_AXIS_UNIT-28 "deg"
*MEAS_COND_AXIS_UNIT-29 "deg"
*MEAS_COND_AXIS_UNIT-3 "deg"
*MEAS_COND_AXIS_UNIT-30 "deg"
*MEAS_COND_AXIS_UNIT-31 ""
*MEAS_COND_AXIS_UNIT-32 ""
*MEAS_COND_AXIS_UNIT-33 "deg"
*MEAS_COND_AXIS_UNIT-34 "deg"
*MEAS_COND_AXIS_UNIT-35 ""
*MEAS_COND_AXIS_UNIT-36 "mm"
*MEAS_COND_AXIS_UNIT-37 ""
*MEAS_COND_AXIS_UNIT-38 "mm"
*MEAS_COND_AXIS_UNIT-39 ""
*MEAS_COND_AXIS_UNIT-4 "deg"
*MEAS_COND_AXIS_UNIT-40 ""
*MEAS_COND_AXIS_UNIT-41 ""
*MEAS_COND_AXIS_UNIT-42 ""
*MEAS_COND_AXIS_UNIT-43 "mm"
*MEAS_COND_AXIS_UNIT-44 ""
*MEAS_COND_AXIS_UNIT-45 ""
*MEAS_COND_AXIS_UNIT-46 "div"
*MEAS_COND_AXIS_UNIT-47 ""
*MEAS_COND_AXIS_UNIT-48 "H"
*MEAS_COND_AXIS_UNIT-49 "H"
*MEAS_COND_AXIS_UNIT-5 "deg"
*MEAS_COND_AXIS_UNIT-50 "H"
*MEAS_COND_AXIS_UNIT-51 "H"
*MEAS_COND_AXIS_UNIT-52 "H"
*MEAS_COND_AXIS_UNIT-53 "mV"
*MEAS_COND_AXIS_UNIT-54 "V"
*MEAS_COND_AXIS_UNIT-55 "V"
*MEAS_COND_AXIS_UNIT-56 "H"
*MEAS_COND_AXIS_UNIT-57 "H"
*MEAS_COND_AXIS_UNIT-58 "H"
*MEAS_COND_AXIS_UNIT-59 "H"
*MEAS_COND_AXIS_UNIT-6 "deg"
*MEAS_COND_AXIS_UNIT-60 "H"
*MEAS_COND_AXIS_UNIT-61 "uS/m"
*MEAS_COND_AXIS_UNIT-62 "L/min"
*MEAS_COND_AXIS_UNIT-63 "degree"
*MEAS_COND_AXIS_UNIT-64 "MPa"
*MEAS_COND_AXIS_UNIT-65 "MPa"
*MEAS_COND_AXIS_UNIT-66 "MPa"
*MEAS_COND_AXIS_UNIT-67 "L/min"
*MEAS_COND_AXIS_UNIT-68 "C"
*MEAS_COND_AXIS_UNIT-69 "MPa"
*MEAS_COND_AXIS_UNIT-7 "deg"
*MEAS_COND_AXIS_UNIT-70 "degree"
*MEAS_COND_AXIS_UNIT-71 "percent"
*MEAS_COND_AXIS_UNIT-72 "degree"
*MEAS_COND_AXIS_UNIT-73 "C"
*MEAS_COND_AXIS_UNIT-74 "H"
*MEAS_COND_AXIS_UNIT-75 "time"
*MEAS_COND_AXIS_UNIT-76 "msec"
*MEAS_COND_AXIS_UNIT-77 "msec"
*MEAS_COND_AXIS_UNIT-78 "H"
*MEAS_COND_AXIS_UNIT-79 "times"
*MEAS_COND_AXIS_UNIT-8 "mm"
*MEAS_COND_AXIS_UNIT-80 "msec"
*MEAS_COND_AXIS_UNIT-81 "msec"
*MEAS_COND_AXIS_UNIT-82 "-"
*MEAS_COND_AXIS_UNIT-83 "-"
*MEAS_COND_AXIS_UNIT-84 "-"
*MEAS_COND_AXIS_UNIT-85 ""
*MEAS_COND_AXIS_UNIT-86 "-"
*MEAS_COND_AXIS_UNIT-87 "-"
*MEAS_COND_AXIS_UNIT-88 "-"
*MEAS_COND_AXIS_UNIT-89 ""
*MEAS_COND_AXIS_UNIT-9 "pulse"
*MEAS_COND_AXIS_UNIT-90 ""
*MEAS_COND_AXIS_UNIT-91 ""
*MEAS_COND_AXIS_UNIT-92 ""
*MEAS_COND_AXIS_UNIT-93 ""
*MEAS_COND_AXIS_UNIT-94 ""
*MEAS_COND_AXIS_UNIT-95 ""
*MEAS_COND_AXIS_UNIT-96 ""
*MEAS_COND_AXIS_UNIT-97 ""
*MEAS_COND_AXIS_UNIT-98 ""
*MEAS_COND_AXIS_UNIT-99 ""
*MEAS_COND_OPT_ATTR "BB"
*MEAS_COND_OPT_NAME ""
*MEAS_COND_XG_CURRENT "50"
*MEAS_COND_XG_VOLTAGE "40"
*MEAS_COND_XG_WAVE_TYPE "Ka1"
*MEAS_DATA_COUNT "8001"
*MEAS_SCAN_AXIS_X "TwoThetaTheta"
*MEAS_SCAN_AXIS_X_INTERNAL "TwoThetaTheta"
*MEAS_SCAN_END_TIME "09/09/2020 18:44:51"
*MEAS_SCAN_MODE "CONTINUOUS"
*MEAS_SCAN_MODE_INTERNAL "TDI_1D"
*MEAS_SCAN_RESOLUTION_X "0.0002"
*MEAS_SCAN_SPEED "2.5000"
*MEAS_SCAN_SPEED_UNIT "deg/min"
*MEAS_SCAN_START "20.0000"
*MEAS_SCAN_START_TIME "09/09/2020 18:11:02"
*MEAS_SCAN_STEP "0.0100"
*MEAS_SCAN_STOP "100.0000"
*MEAS_SCAN_UNEQUALY_SPACED "False"
*MEAS_SCAN_UNIT_X "deg"
*MEAS_SCAN_UNIT_Y "cps"
#Intensity_unit=cps
#Attenuator_coefficient=1.0000
20.0000 62.5000
20.0100 50.0000
20.0200 50.0000
20.0300 58.3334
20.0400 70.8334
20.0500 87.5000
20.0600 100.0000
20.0700 79.1666
20.0800 70.8334
20.0900 66.6666
20.1000 70.8334
20.1100 41.6666
20.1200 79.1666
20.1300 70.8334
20.1400 95.8334
20.1500 50.0000
20.1600 104.1666
20.1700 120.8334
20.1800 145.8334
20.1900 129.1666
20.2000 212.5000
20.2100 175.0000
20.2200 233.3334
20.2300 262.5000
20.2400 304.1666
20.2500 300.0000
20.2600 262.5000
20.2700 154.1666
20.2800 175.0000
20.2900 145.8334
20.3000 133.3334
20.3100 87.5000
20.3200 108.3334
20.3300 83.3334
20.3400 91.6666
20.3500 66.6666
20.3600 75.0000
20.3700 70.8334
20.3800 58.3334
20.3900 95.8334
20.4000 79.1666
20.4100 75.0000
20.4200 58.3334
20.4300 58.3334
20.4400 70.8334
20.4500 66.6666
20.4600 62.5000
20.4700 70.8334
20.4800 50.0000
20.4900 50.0000
20.5000 79.1666
20.5100 75.0000
20.5200 75.0000
20.5300 83.3334
20.5400 54.1666
20.5500 50.0000
20.5600 66.6666
20.5700 37.5000
20.5800 75.0000
20.5900 54.1666
20.6000 54.1666
20.6100 83.3334
20.6200 79.1666
20.6300 54.1666
20.6400 50.0000
20.6500 54.1666
20.6600 50.0000
20.6700 87.5000
20.6800 79.1666
20.6900 45.8334
20.7000 66.6666
20.7100 70.8334
20.7200 37.5000
20.7300 79.1666
20.7400 45.8334
20.7500 66.6666
20.7600 95.8334
20.7700 62.5000
20.7800 50.0000
20.7900 29.1666
20.8000 75.0000
20.8100 54.1666
20.8200 75.0000
20.8300 108.3334
20.8400 79.1666
20.8500 87.5000
20.8600 104.1666
20.8700 70.8334
20.8800 66.6666
20.8900 70.8334
20.9000 91.6666
20.9100 62.5000
20.9200 75.0000
20.9300 66.6666
20.9400 58.3334
20.9500 58.3334
20.9600 37.5000
20.9700 41.6666
20.9800 58.3334
20.9900 33.3334
21.0000 41.6666
21.0100 87.5000
21.0200 33.3334
21.0300 70.8334
21.0400 79.1666
21.0500 58.3334
21.0600 58.3334
21.0700 70.8334
21.0800 62.5000
21.0900 45.8334
21.1000 70.8334
21.1100 50.0000
21.1200 66.6666
21.1300 79.1666
21.1400 70.8334
21.1500 54.1666
21.1600 54.1666
21.1700 62.5000
21.1800 62.5000
21.1900 66.6666
21.2000 33.3334
21.2100 62.5000
21.2200 66.6666
21.2300 87.5000
21.2400 100.0000
21.2500 50.0000
21.2600 70.8334
21.2700 100.0000
21.2800 116.6666
21.2900 112.5000
21.3000 75.0000
21.3100 83.3334
21.3200 75.0000
21.3300 66.6666
21.3400 83.3334
21.3500 70.8334
21.3600 70.8334
21.3700 58.3334
21.3800 54.1666
21.3900 45.8334
21.4000 70.8334
21.4100 54.1666
21.4200 50.0000
21.4300 62.5000
21.4400 37.5000
21.4500 50.0000
21.4600 62.5000
21.4700 20.8334
21.4800 50.0000
21.4900 66.6666
21.5000 41.6666
21.5100 66.6666
21.5200 66.6666
21.5300 45.8334
21.5400 62.5000
21.5500 50.0000
21.5600 16.6666
21.5700 50.0000
21.5800 50.0000
21.5900 41.6666
21.6000 54.1666
21.6100 66.6666
21.6200 54.1666
21.6300 50.0000
21.6400 50.0000
21.6500 62.5000
21.6600 58.3334
21.6700 54.1666
21.6800 37.5000
21.6900 54.1666
21.7000 50.0000
21.7100 58.3334
21.7200 54.1666
21.7300 45.8334
21.7400 75.0000
21.7500 58.3334
21.7600 45.8334
21.7700 62.5000
21.7800 41.6666
21.7900 54.1666
21.8000 45.8334
21.8100 54.1666
21.8200 33.3334
21.8300 29.1666
21.8400 50.0000
21.8500 37.5000
21.8600 45.8334
21.8700 62.5000
21.8800 45.8334
21.8900 45.8334
21.9000 79.1666
21.9100 54.1666
21.9200 45.8334
21.9300 50.0000
21.9400 62.5000
21.9500 58.3334
21.9600 58.3334
21.9700 54.1666
21.9800 58.3334
21.9900 66.6666
22.0000 50.0000
22.0100 54.1666
22.0200 50.0000
22.0300 62.5000
22.0400 66.6666
22.0500 66.6666
22.0600 75.0000
22.0700 83.3334
22.0800 58.3334
22.0900 95.8334
22.1000 70.8334
22.1100 45.8334
22.1200 70.8334
22.1300 83.3334
22.1400 70.8334
22.1500 87.5000
22.1600 87.5000
22.1700 62.5000
22.1800 95.8334
22.1900 108.3334
22.2000 108.3334
22.2100 75.0000
22.2200 58.3334
22.2300 66.6666
22.2400 54.1666
22.2500 66.6666
22.2600 41.6666
22.2700 83.3334
22.2800 50.0000
22.2900 66.6666
22.3000 62.5000
22.3100 58.3334
22.3200 50.0000
22.3300 100.0000
22.3400 62.5000
22.3500 87.5000
22.3600 70.8334
22.3700 54.1666
22.3800 75.0000
22.3900 75.0000
22.4000 70.8334
22.4100 79.1666
22.4200 54.1666
22.4300 62.5000
22.4400 54.1666
22.4500 50.0000
22.4600 58.3334
22.4700 87.5000
22.4800 70.8334
22.4900 95.8334
22.5000 112.5000
22.5100 79.1666
22.5200 75.0000
22.5300 79.1666
22.5400 116.6666
22.5500 79.1666
22.5600 70.8334
22.5700 91.6666
22.5800 75.0000
22.5900 62.5000
22.6000 54.1666
22.6100 100.0000
22.6200 50.0000
22.6300 70.8334
22.6400 83.3334
22.6500 79.1666
22.6600 58.3334
22.6700 66.6666
22.6800 66.6666
22.6900 37.5000
22.7000 45.8334
22.7100 45.8334
22.7200 41.6666
22.7300 41.6666
22.7400 50.0000
22.7500 62.5000
22.7600 50.0000
22.7700 62.5000
22.7800 70.8334
22.7900 58.3334
22.8000 45.8334
22.8100 45.8334
22.8200 58.3334
22.8300 58.3334
22.8400 70.8334
22.8500 37.5000
22.8600 50.0000
22.8700 29.1666
22.8800 41.6666
22.8900 58.3334
22.9000 58.3334
22.9100 41.6666
22.9200 41.6666
22.9300 41.6666
22.9400 33.3334
22.9500 62.5000
22.9600 41.6666
22.9700 54.1666
22.9800 62.5000
22.9900 54.1666
23.0000 33.3334
23.0100 41.6666
23.0200 58.3334
23.0300 41.6666
23.0400 41.6666
23.0500 66.6666
23.0600 33.3334
23.0700 33.3334
23.0800 62.5000
23.0900 33.3334
23.1000 54.1666
23.1100 54.1666
23.1200 50.0000
23.1300 45.8334
23.1400 37.5000
23.1500 66.6666
23.1600 41.6666
23.1700 54.1666
23.1800 41.6666
23.1900 41.6666
23.2000 37.5000
23.2100 75.0000
23.2200 54.1666
23.2300 83.3334
23.2400 58.3334
23.2500 66.6666
23.2600 83.3334
23.2700 100.0000
23.2800 125.0000
23.2900 108.3334
23.3000 95.8334
23.3100 45.8334
23.3200 83.3334
23.3300 41.6666
23.3400 87.5000
23.3500 70.8334
23.3600 33.3334
23.3700 66.6666
23.3800 62.5000
23.3900 58.3334
23.4000 62.5000
23.4100 62.5000
23.4200 58.3334
23.4300 37.5000
23.4400 54.1666
23.4500 45.8334
23.4600 58.3334
23.4700 62.5000
23.4800 62.5000
23.4900 66.6666
23.5000 54.1666
23.5100 62.5000
23.5200 54.1666
23.5300 50.0000
23.5400 45.8334
23.5500 45.8334
23.5600 79.1666
23.5700 50.0000
23.5800 54.1666
23.5900 50.0000
23.6000 83.3334
23.6100 58.3334
23.6200 83.3334
23.6300 75.0000
23.6400 100.0000
23.6500 83.3334
23.6600 54.1666
23.6700 58.3334
23.6800 41.6666
23.6900 29.1666
23.7000 33.3334
23.7100 25.0000
23.7200 54.1666
23.7300 45.8334
23.7400 45.8334
23.7500 41.6666
23.7600 37.5000
23.7700 37.5000
23.7800 50.0000
23.7900 41.6666
23.8000 50.0000
23.8100 50.0000
23.8200 37.5000
23.8300 50.0000
23.8400 29.1666
23.8500 62.5000
23.8600 58.3334
23.8700 41.6666
23.8800 37.5000
23.8900 45.8334
23.9000 50.0000
23.9100 79.1666
23.9200 41.6666
23.9300 37.5000
23.9400 66.6666
23.9500 112.5000
23.9600 104.1666
23.9700 116.6666
23.9800 195.8334
23.9900 141.6666
24.0000 166.6666
24.0100 208.3334
24.0200 170.8334
24.0300 187.5000
24.0400 137.5000
24.0500 120.8334
24.0600 75.0000
24.0700 91.6666
24.0800 58.3334
24.0900 66.6666
24.1000 50.0000
24.1100 70.8334
24.1200 62.5000
24.1300 54.1666
24.1400 66.6666
24.1500 54.1666
24.1600 50.0000
24.1700 62.5000
24.1800 33.3334
24.1900 50.0000
24.2000 33.3334
24.2100 70.8334
24.2200 50.0000
24.2300 62.5000
24.2400 45.8334
24.2500 29.1666
24.2600 37.5000
24.2700 41.6666
24.2800 33.3334
24.2900 45.8334
24.3000 37.5000
24.3100 66.6666
24.3200 37.5000
24.3300 50.0000
24.3400 54.1666
24.3500 33.3334
24.3600 45.8334
24.3700 62.5000
24.3800 58.3334
24.3900 54.1666
24.4000 50.0000
24.4100 37.5000
24.4200 50.0000
24.4300 58.3334
24.4400 41.6666
24.4500 41.6666
24.4600 54.1666
24.4700 45.8334
24.4800 41.6666
24.4900 41.6666
24.5000 41.6666
24.5100 41.6666
24.5200 41.6666
24.5300 54.1666
24.5400 91.6666
24.5500 66.6666
24.5600 79.1666
24.5700 79.1666
24.5800 104.1666
24.5900 75.0000
24.6000 66.6666
24.6100 66.6666
24.6200 83.3334
24.6300 41.6666
24.6400 29.1666
24.6500 29.1666
24.6600 70.8334
24.6700 75.0000
24.6800 20.8334
24.6900 66.6666
24.7000 37.5000
24.7100 70.8334
24.7200 41.6666
24.7300 37.5000
24.7400 45.8334
24.7500 50.0000
24.7600 54.1666
24.7700 58.3334
24.7800 62.5000
24.7900 41.6666
24.8000 41.6666
24.8100 50.0000
24.8200 33.3334
24.8300 54.1666
24.8400 41.6666
24.8500 58.3334
24.8600 29.1666
24.8700 54.1666
24.8800 45.8334
24.8900 33.3334
24.9000 29.1666
24.9100 66.6666
24.9200 20.8334
24.9300 50.0000
24.9400 41.6666
24.9500 37.5000
24.9600 37.5000
24.9700 58.3334
24.9800 45.8334
24.9900 70.8334
25.0000 58.3334
25.0100 54.1666
25.0200 54.1666
25.0300 58.3334
25.0400 54.1666
25.0500 50.0000
25.0600 54.1666
25.0700 25.0000
25.0800 25.0000
25.0900 29.1666
25.1000 50.0000
25.1100 45.8334
25.1200 50.0000
25.1300 54.1666
25.1400 45.8334
25.1500 33.3334
25.1600 70.8334
25.1700 45.8334
25.1800 37.5000
25.1900 50.0000
25.2000 12.5000
25.2100 20.8334
25.2200 41.6666
25.2300 37.5000
25.2400 41.6666
25.2500 62.5000
25.2600 37.5000
25.2700 41.6666
25.2800 33.3334
25.2900 25.0000
25.3000 54.1666
25.3100 54.1666
25.3200 50.0000
25.3300 33.3334
25.3400 45.8334
25.3500 45.8334
25.3600 54.1666
25.3700 58.3334
25.3800 29.1666
25.3900 41.6666
25.4000 33.3334
25.4100 45.8334
25.4200 45.8334
25.4300 58.3334
25.4400 37.5000
25.4500 41.6666
25.4600 20.8334
25.4700 16.6666
25.4800 50.0000
25.4900 54.1666
25.5000 54.1666
25.5100 50.0000
25.5200 37.5000
25.5300 50.0000
25.5400 50.0000
25.5500 41.6666
25.5600 25.0000
25.5700 62.5000
25.5800 45.8334
25.5900 37.5000
25.6000 25.0000
25.6100 50.0000
25.6200 45.8334
25.6300 37.5000
25.6400 41.6666
25.6500 41.6666
25.6600 54.1666
25.6700 66.6666
25.6800 54.1666
25.6900 45.8334
25.7000 58.3334
25.7100 41.6666
25.7200 66.6666
25.7300 62.5000
25.7400 20.8334
25.7500 33.3334
25.7600 50.0000
25.7700 54.1666
25.7800 41.6666
25.7900 45.8334
25.8000 50.0000
25.8100 33.3334
25.8200 66.6666
25.8300 50.0000
25.8400 66.6666
25.8500 133.3334
25.8600 91.6666
25.8700 129.1666
25.8800 133.3334
25.8900 145.8334
25.9000 87.5000
25.9100 95.8334
25.9200 33.3334
25.9300 58.3334
25.9400 29.1666
25.9500 50.0000
25.9600 54.1666
25.9700 33.3334
25.9800 45.8334
25.9900 58.3334
26.0000 66.6666
26.0100 75.0000
26.0200 20.8334
26.0300 33.3334
26.0400 25.0000
26.0500 25.0000
26.0600 33.3334
26.0700 29.1666
26.0800 45.8334
26.0900 45.8334
26.1000 66.6666
26.1100 33.3334
26.1200 54.1666
26.1300 41.6666
26.1400 41.6666
26.1500 37.5000
26.1600 50.0000
26.1700 58.3334
26.1800 62.5000
26.1900 37.5000
26.2000 54.1666
26.2100 45.8334
26.2200 58.3334
26.2300 37.5000
26.2400 37.5000
26.2500 41.6666
26.2600 50.0000
26.2700 41.6666
26.2800 54.1666
26.2900 41.6666
26.3000 29.1666
26.3100 41.6666
26.3200 37.5000
26.3300 20.8334
26.3400 45.8334
26.3500 50.0000
26.3600 54.1666
26.3700 54.1666
26.3800 45.8334
26.3900 41.6666
26.4000 58.3334
26.4100 37.5000
26.4200 50.0000
26.4300 41.6666
26.4400 50.0000
26.4500 33.3334
26.4600 58.3334
26.4700 50.0000
26.4800 41.6666
26.4900 50.0000
26.5000 33.3334
26.5100 50.0000
26.5200 37.5000
26.5300 58.3334
26.5400 50.0000
26.5500 25.0000
26.5600 33.3334
26.5700 33.3334
26.5800 29.1666
26.5900 45.8334
26.6000 33.3334
26.6100 37.5000
26.6200 33.3334
26.6300 33.3334
26.6400 33.3334
26.6500 37.5000
26.6600 20.8334
26.6700 37.5000
26.6800 29.1666
26.6900 33.3334
26.7000 41.6666
26.7100 58.3334
26.7200 54.1666
26.7300 33.3334
26.7400 37.5000
26.7500 33.3334
26.7600 50.0000
26.7700 66.6666
26.7800 29.1666
26.7900 33.3334
26.8000 45.8334
26.8100 58.3334
26.8200 50.0000
26.8300 54.1666
26.8400 45.8334
26.8500 37.5000
26.8600 41.6666
26.8700 37.5000
26.8800 45.8334
26.8900 37.5000
26.9000 41.6666
26.9100 33.3334
26.9200 37.5000
26.9300 58.3334
26.9400 25.0000
26.9500 37.5000
26.9600 66.6666
26.9700 20.8334
26.9800 50.0000
26.9900 58.3334
27.0000 62.5000
27.0100 29.1666
27.0200 29.1666
27.0300 25.0000
27.0400 37.5000
27.0500 45.8334
27.0600 50.0000
27.0700 54.1666
27.0800 45.8334
27.0900 83.3334
27.1000 62.5000
27.1100 66.6666
27.1200 104.1666
27.1300 75.0000
27.1400 112.5000
27.1500 87.5000
27.1600 54.1666
27.1700 75.0000
27.1800 108.3334
27.1900 100.0000
27.2000 87.5000
27.2100 66.6666
27.2200 70.8334
27.2300 116.6666
27.2400 79.1666
27.2500 129.1666
27.2600 145.8334
27.2700 162.5000
27.2800 141.6666
27.2900 120.8334
27.3000 108.3334
27.3100 87.5000
27.3200 87.5000
27.3300 83.3334
27.3400 66.6666
27.3500 87.5000
27.3600 87.5000
27.3700 33.3334
27.3800 66.6666
27.3900 54.1666
27.4000 54.1666
27.4100 62.5000
27.4200 58.3334
27.4300 45.8334
27.4400 33.3334
27.4500 41.6666
27.4600 45.8334
27.4700 45.8334
27.4800 50.0000
27.4900 50.0000
27.5000 50.0000
27.5100 29.1666
27.5200 20.8334
27.5300 41.6666
27.5400 58.3334
27.5500 37.5000
27.5600 37.5000
27.5700 29.1666
27.5800 58.3334
27.5900 58.3334
27.6000 29.1666
27.6100 25.0000
27.6200 33.3334
27.6300 45.8334
27.6400 45.8334
27.6500 37.5000
27.6600 45.8334
27.6700 50.0000
27.6800 66.6666
27.6900 58.3334
27.7000 45.8334
27.7100 37.5000
27.7200 29.1666
27.7300 70.8334
27.7400 50.0000
27.7500 62.5000
27.7600 54.1666
27.7700 58.3334
27.7800 45.8334
27.7900 33.3334
27.8000 50.0000
27.8100 54.1666
27.8200 66.6666
27.8300 70.8334
27.8400 70.8334
27.8500 58.3334
27.8600 50.0000
27.8700 58.3334
27.8800 41.6666
27.8900 50.0000
27.9000 54.1666
27.9100 41.6666
27.9200 29.1666
27.9300 50.0000
27.9400 33.3334
27.9500 33.3334
27.9600 54.1666
27.9700 37.5000
27.9800 29.1666
27.9900 25.0000
28.0000 29.1666
28.0100 41.6666
28.0200 33.3334
28.0300 45.8334
28.0400 33.3334
28.0500 25.0000
28.0600 29.1666
28.0700 16.6666
28.0800 29.1666
28.0900 41.6666
28.1000 16.6666
28.1100 41.6666
28.1200 29.1666
28.1300 41.6666
28.1400 45.8334
28.1500 37.5000
28.1600 58.3334
28.1700 54.1666
28.1800 33.3334
28.1900 70.8334
28.2000 37.5000
28.2100 37.5000
28.2200 58.3334
28.2300 62.5000
28.2400 33.3334
28.2500 37.5000
28.2600 41.6666
28.2700 33.3334
28.2800 66.6666
28.2900 50.0000
28.3000 29.1666
28.3100 41.6666
28.3200 50.0000
28.3300 41.6666
28.3400 45.8334
28.3500 37.5000
28.3600 54.1666
28.3700 25.0000
28.3800 45.8334
28.3900 58.3334
28.4000 70.8334
28.4100 29.1666
28.4200 45.8334
28.4300 45.8334
28.4400 50.0000
28.4500 45.8334
28.4600 54.1666
28.4700 33.3334
28.4800 41.6666
28.4900 54.1666
28.5000 75.0000
28.5100 54.1666
28.5200 58.3334
28.5300 83.3334
28.5400 41.6666
28.5500 41.6666
28.5600 54.1666
28.5700 91.6666
28.5800 70.8334
28.5900 75.0000
28.6000 70.8334
28.6100 91.6666
28.6200 100.0000
28.6300 58.3334
28.6400 79.1666
28.6500 66.6666
28.6600 79.1666
28.6700 83.3334
28.6800 91.6666
28.6900 95.8334
28.7000 141.6666
28.7100 112.5000
28.7200 154.1666
28.7300 212.5000
28.7400 237.5000
28.7500 250.0000
28.7600 358.3334
28.7700 400.0000
28.7800 379.1666
28.7900 441.6666
28.8000 391.6666
28.8100 408.3334
28.8200 291.6666
28.8300 270.8334
28.8400 187.5000
28.8500 170.8334
28.8600 166.6666
28.8700 175.0000
28.8800 133.3334
28.8900 95.8334
28.9000 120.8334
28.9100 87.5000
28.9200 137.5000
28.9300 83.3334
28.9400 100.0000
28.9500 66.6666
28.9600 79.1666
28.9700 66.6666
28.9800 79.1666
28.9900 50.0000
29.0000 70.8334
29.0100 58.3334
29.0200 70.8334
29.0300 70.8334
29.0400 66.6666
29.0500 95.8334
29.0600 75.0000
29.0700 70.8334
29.0800 66.6666
29.0900 41.6666
29.1000 41.6666
29.1100 66.6666
29.1200 54.1666
29.1300 41.6666
29.1400 58.3334
29.1500 50.0000
29.1600 41.6666
29.1700 54.1666
29.1800 54.1666
29.1900 62.5000
29.2000 54.1666
29.2100 66.6666
29.2200 54.1666
29.2300 45.8334
29.2400 41.6666
29.2500 50.0000
29.2600 58.3334
29.2700 25.0000
29.2800 33.3334
29.2900 50.0000
29.3000 66.6666
29.3100 66.6666
29.3200 62.5000
29.3300 37.5000
29.3400 41.6666
29.3500 50.0000
29.3600 54.1666
29.3700 41.6666
29.3800 37.5000
29.3900 45.8334
29.4000 70.8334
29.4100 50.0000
29.4200 45.8334
29.4300 54.1666
29.4400 37.5000
29.4500 45.8334
29.4600 45.8334
29.4700 45.8334
29.4800 62.5000
29.4900 37.5000
29.5000 45.8334
29.5100 54.1666
29.5200 45.8334
29.5300 25.0000
29.5400 29.1666
29.5500 54.1666
29.5600 41.6666
29.5700 37.5000
29.5800 37.5000
29.5900 41.6666
29.6000 45.8334
29.6100 45.8334
29.6200 37.5000
29.6300 25.0000
29.6400 37.5000
29.6500 41.6666
29.6600 16.6666
29.6700 29.1666
29.6800 50.0000
29.6900 50.0000
29.7000 29.1666
29.7100 20.8334
29.7200 54.1666
29.7300 33.3334
29.7400 41.6666
29.7500 45.8334
29.7600 66.6666
29.7700 45.8334
29.7800 50.0000
29.7900 62.5000
29.8000 45.8334
29.8100 45.8334
29.8200 66.6666
29.8300 75.0000
29.8400 45.8334
29.8500 70.8334
29.8600 58.3334
29.8700 58.3334
29.8800 45.8334
29.8900 41.6666
29.9000 54.1666
29.9100 41.6666
29.9200 75.0000
29.9300 62.5000
29.9400 66.6666
29.9500 54.1666
29.9600 37.5000
29.9700 75.0000
29.9800 58.3334
29.9900 58.3334
30.0000 50.0000
30.0100 66.6666
30.0200 50.0000
30.0300 41.6666
30.0400 58.3334
30.0500 75.0000
30.0600 50.0000
30.0700 50.0000
30.0800 62.5000
30.0900 62.5000
30.1000 58.3334
30.1100 75.0000
30.1200 66.6666
30.1300 79.1666
30.1400 66.6666
30.1500 95.8334
30.1600 66.6666
30.1700 54.1666
30.1800 70.8334
30.1900 87.5000
30.2000 104.1666
30.2100 79.1666
30.2200 58.3334
30.2300 58.3334
30.2400 70.8334
30.2500 62.5000
30.2600 50.0000
30.2700 29.1666
30.2800 54.1666
30.2900 58.3334
30.3000 54.1666
30.3100 58.3334
30.3200 50.0000
30.3300 29.1666
30.3400 45.8334
30.3500 45.8334
30.3600 20.8334
30.3700 33.3334
30.3800 50.0000
30.3900 29.1666
30.4000 33.3334
30.4100 50.0000
30.4200 45.8334
30.4300 62.5000
30.4400 33.3334
30.4500 33.3334
30.4600 25.0000
30.4700 54.1666
30.4800 25.0000
30.4900 50.0000
30.5000 33.3334
30.5100 50.0000
30.5200 33.3334
30.5300 29.1666
30.5400 58.3334
30.5500 29.1666
30.5600 33.3334
30.5700 54.1666
30.5800 33.3334
30.5900 29.1666
30.6000 37.5000
30.6100 41.6666
30.6200 37.5000
30.6300 45.8334
30.6400 50.0000
30.6500 33.3334
30.6600 41.6666
30.6700 62.5000
30.6800 54.1666
30.6900 37.5000
30.7000 66.6666
30.7100 62.5000
30.7200 54.1666
30.7300 37.5000
30.7400 41.6666
30.7500 37.5000
30.7600 45.8334
30.7700 37.5000
30.7800 25.0000
30.7900 62.5000
30.8000 29.1666
30.8100 41.6666
30.8200 29.1666
30.8300 25.0000
30.8400 50.0000
30.8500 45.8334
30.8600 37.5000
30.8700 29.1666
30.8800 33.3334
30.8900 33.3334
30.9000 20.8334
30.9100 41.6666
30.9200 45.8334
30.9300 25.0000
30.9400 20.8334
30.9500 29.1666
30.9600 33.3334
30.9700 45.8334
30.9800 37.5000
30.9900 33.3334
31.0000 33.3334
31.0100 29.1666
31.0200 20.8334
31.0300 12.5000
31.0400 50.0000
31.0500 37.5000
31.0600 29.1666
31.0700 16.6666
31.0800 20.8334
31.0900 25.0000
31.1000 37.5000
31.1100 29.1666
31.1200 41.6666
31.1300 29.1666
31.1400 33.3334
31.1500 37.5000
31.1600 33.3334
31.1700 29.1666
31.1800 33.3334
31.1900 25.0000
31.2000 20.8334
31.2100 16.6666
31.2200 16.6666
31.2300 37.5000
31.2400 29.1666
31.2500 37.5000
31.2600 37.5000
31.2700 50.0000
31.2800 37.5000
31.2900 29.1666
31.3000 45.8334
31.3100 20.8334
31.3200 37.5000
31.3300 54.1666
31.3400 50.0000
31.3500 66.6666
31.3600 25.0000
31.3700 45.8334
31.3800 45.8334
31.3900 54.1666
31.4000 37.5000
31.4100 29.1666
31.4200 45.8334
31.4300 50.0000
31.4400 41.6666
31.4500 29.1666
31.4600 29.1666
31.4700 29.1666
31.4800 41.6666
31.4900 33.3334
31.5000 37.5000
31.5100 25.0000
31.5200 4.1666
31.5300 33.3334
31.5400 50.0000
31.5500 58.3334
31.5600 79.1666
31.5700 50.0000
31.5800 95.8334
31.5900 91.6666
31.6000 129.1666
31.6100 108.3334
31.6200 108.3334
31.6300 125.0000
31.6400 108.3334
31.6500 70.8334
31.6600 58.3334
31.6700 70.8334
31.6800 45.8334
31.6900 62.5000
31.7000 66.6666
31.7100 37.5000
31.7200 50.0000
31.7300 75.0000
31.7400 50.0000
31.7500 16.6666
31.7600 25.0000
31.7700 29.1666
31.7800 33.3334
31.7900 29.1666
31.8000 58.3334
31.8100 37.5000
31.8200 29.1666
31.8300 29.1666
31.8400 45.8334
31.8500 29.1666
31.8600 37.5000
31.8700 41.6666
31.8800 50.0000
31.8900 45.8334
31.9000 54.1666
31.9100 33.3334
31.9200 41.6666
31.9300 50.0000
31.9400 20.8334
31.9500 54.1666
31.9600 41.6666
31.9700 29.1666
31.9800 50.0000
31.9900 45.8334
32.0000 37.5000
32.0100 45.8334
32.0200 45.8334
32.0300 58.3334
32.0400 45.8334
32.0500 54.1666
32.0600 58.3334
32.0700 29.1666
32.0800 66.6666
32.0900 54.1666
32.1000 45.8334
32.1100 25.0000
32.1200 45.8334
32.1300 54.1666
32.1400 37.5000
32.1500 58.3334
32.1600 37.5000
32.1700 50.0000
32.1800 50.0000
32.1900 45.8334
32.2000 37.5000
32.2100 16.6666
32.2200 41.6666
32.2300 29.1666
32.2400 41.6666
32.2500 45.8334
32.2600 41.6666
32.2700 33.3334
32.2800 58.3334
32.2900 37.5000
32.3000 41.6666
32.3100 50.0000
32.3200 54.1666
32.3300 20.8334
32.3400 29.1666
32.3500 50.0000
32.3600 37.5000
32.3700 16.6666
32.3800 33.3334
32.3900 41.6666
32.4000 50.0000
32.4100 50.0000
32.4200 33.3334
32.4300 62.5000
32.4400 29.1666
32.4500 25.0000
32.4600 41.6666
32.4700 45.8334
32.4800 41.6666
32.4900 25.0000
32.5000 16.6666
32.5100 41.6666
32.5200 29.1666
32.5300 16.6666
32.5400 41.6666
32.5500 45.8334
32.5600 20.8334
32.5700 50.0000
32.5800 37.5000
32.5900 29.1666
32.6000 37.5000
32.6100 54.1666
32.6200 20.8334
32.6300 20.8334
32.6400 25.0000
32.6500 37.5000
32.6600 37.5000
32.6700 62.5000
32.6800 54.1666
32.6900 37.5000
32.7000 45.8334
32.7100 54.1666
32.7200 58.3334
32.7300 54.1666
32.7400 50.0000
32.7500 91.6666
32.7600 62.5000
32.7700 50.0000
32.7800 62.5000
32.7900 62.5000
32.8000 58.3334
32.8100 37.5000
32.8200 45.8334
32.8300 50.0000
32.8400 91.6666
32.8500 75.0000
32.8600 62.5000
32.8700 70.8334
32.8800 70.8334
32.8900 116.6666
32.9000 129.1666
32.9100 108.3334
32.9200 104.1666
32.9300 129.1666
32.9400 112.5000
32.9500 87.5000
32.9600 150.0000
32.9700 91.6666
32.9800 108.3334
32.9900 75.0000
33.0000 79.1666
33.0100 62.5000
33.0200 66.6666
33.0300 33.3334
33.0400 45.8334
33.0500 54.1666
33.0600 50.0000
33.0700 45.8334
33.0800 37.5000
33.0900 41.6666
33.1000 29.1666
33.1100 58.3334
33.1200 37.5000
33.1300 33.3334
33.1400 58.3334
33.1500 33.3334
33.1600 41.6666
33.1700 33.3334
33.1800 16.6666
33.1900 45.8334
33.2000 29.1666
33.2100 16.6666
33.2200 25.0000
33.2300 33.3334
33.2400 29.1666
33.2500 25.0000
33.2600 33.3334
33.2700 75.0000
33.2800 25.0000
33.2900 37.5000
33.3000 45.8334
33.3100 58.3334
33.3200 37.5000
33.3300 50.0000
33.3400 33.3334
33.3500 58.3334
33.3600 29.1666
33.3700 20.8334
33.3800 41.6666
33.3900 37.5000
33.4000 4.1666
33.4100 58.3334
33.4200 16.6666
33.4300 41.6666
33.4400 45.8334
33.4500 33.3334
33.4600 20.8334
33.4700 41.6666
33.4800 33.3334
33.4900 37.5000
33.5000 33.3334
33.5100 45.8334
33.5200 45.8334
33.5300 20.8334
33.5400 33.3334
33.5500 45.8334
33.5600 25.0000
33.5700 41.6666
33.5800 58.3334
33.5900 29.1666
33.6000 37.5000
33.6100 41.6666
33.6200 58.3334
33.6300 29.1666
33.6400 54.1666
33.6500 20.8334
33.6600 37.5000
33.6700 58.3334
33.6800 41.6666
33.6900 58.3334
33.7000 37.5000
33.7100 37.5000
33.7200 41.6666
33.7300 20.8334
33.7400 33.3334
33.7500 54.1666
33.7600 45.8334
33.7700 20.8334
33.7800 20.8334
33.7900 25.0000
33.8000 25.0000
33.8100 33.3334
33.8200 29.1666
33.8300 45.8334
33.8400 45.8334
33.8500 41.6666
33.8600 50.0000
33.8700 54.1666
33.8800 41.6666
33.8900 25.0000
33.9000 29.1666
33.9100 33.3334
33.9200 12.5000
33.9300 16.6666
33.9400 12.5000
33.9500 16.6666
33.9600 29.1666
33.9700 29.1666
33.9800 33.3334
33.9900 29.1666
34.0000 54.1666
34.0100 33.3334
34.0200 54.1666
34.0300 33.3334
34.0400 4.1666
34.0500 12.5000
34.0600 33.3334
34.0700 41.6666
34.0800 45.8334
34.0900 50.0000
34.1000 62.5000
34.1100 45.8334
34.1200 12.5000
34.1300 45.8334
34.1400 50.0000
34.1500 33.3334
34.1600 37.5000
34.1700 41.6666
34.1800 41.6666
34.1900 54.1666
34.2000 37.5000
34.2100 33.3334
34.2200 75.0000
34.2300 50.0000
34.2400 16.6666
34.2500 66.6666
34.2600 50.0000
34.2700 37.5000
34.2800 45.8334
34.2900 25.0000
34.3000 41.6666
34.3100 45.8334
34.3200 45.8334
34.3300 33.3334
34.3400 50.0000
34.3500 41.6666
34.3600 25.0000
34.3700 58.3334
34.3800 29.1666
34.3900 45.8334
34.4000 41.6666
34.4100 33.3334
34.4200 37.5000
34.4300 33.3334
34.4400 41.6666
34.4500 33.3334
34.4600 50.0000
34.4700 33.3334
34.4800 58.3334
34.4900 62.5000
34.5000 66.6666
34.5100 58.3334
34.5200 45.8334
34.5300 58.3334
34.5400 50.0000
34.5500 41.6666
34.5600 54.1666
34.5700 45.8334
34.5800 54.1666
34.5900 66.6666
34.6000 54.1666
34.6100 87.5000
34.6200 62.5000
34.6300 45.8334
34.6400 41.6666
34.6500 79.1666
34.6600 91.6666
34.6700 58.3334
34.6800 70.8334
34.6900 62.5000
34.7000 104.1666
34.7100 112.5000
34.7200 137.5000
34.7300 120.8334
34.7400 79.1666
34.7500 83.3334
34.7600 58.3334
34.7700 41.6666
34.7800 79.1666
34.7900 83.3334
34.8000 75.0000
34.8100 91.6666
34.8200 83.3334
34.8300 79.1666
34.8400 54.1666
34.8500 83.3334
34.8600 50.0000
34.8700 41.6666
34.8800 66.6666
34.8900 45.8334
34.9000 75.0000
34.9100 45.8334
34.9200 50.0000
34.9300 45.8334
34.9400 50.0000
34.9500 62.5000
34.9600 50.0000
34.9700 41.6666
34.9800 62.5000
34.9900 41.6666
35.0000 37.5000
35.0100 45.8334
35.0200 45.8334
35.0300 54.1666
35.0400 45.8334
35.0500 50.0000
35.0600 54.1666
35.0700 75.0000
35.0800 66.6666
35.0900 66.6666
35.1000 79.1666
35.1100 75.0000
35.1200 104.1666
35.1300 50.0000
35.1400 75.0000
35.1500 62.5000
35.1600 58.3334
35.1700 41.6666
35.1800 62.5000
35.1900 50.0000
35.2000 54.1666
35.2100 50.0000
35.2200 45.8334
35.2300 37.5000
35.2400 41.6666
35.2500 54.1666
35.2600 50.0000
35.2700 50.0000
35.2800 45.8334
35.2900 62.5000
35.3000 58.3334
35.3100 45.8334
35.3200 66.6666
35.3300 95.8334
35.3400 62.5000
35.3500 54.1666
35.3600 66.6666
35.3700 70.8334
35.3800 66.6666
35.3900 112.5000
35.4000 108.3334
35.4100 137.5000
35.4200 150.0000
35.4300 137.5000
35.4400 170.8334
35.4500 187.5000
35.4600 245.8334
35.4700 187.5000
35.4800 170.8334
35.4900 150.0000
35.5000 87.5000
35.5100 83.3334
35.5200 100.0000
35.5300 95.8334
35.5400 91.6666
35.5500 66.6666
35.5600 50.0000
35.5700 58.3334
35.5800 79.1666
35.5900 79.1666
35.6000 58.3334
35.6100 66.6666
35.6200 58.3334
35.6300 75.0000
35.6400 62.5000
35.6500 58.3334
35.6600 66.6666
35.6700 58.3334
35.6800 41.6666
35.6900 54.1666
35.7000 83.3334
35.7100 37.5000
35.7200 50.0000
35.7300 37.5000
35.7400 62.5000
35.7500 54.1666
35.7600 45.8334
35.7700 50.0000
35.7800 29.1666
35.7900 41.6666
35.8000 58.3334
35.8100 45.8334
35.8200 54.1666
35.8300 41.6666
35.8400 16.6666
35.8500 33.3334
35.8600 33.3334
35.8700 45.8334
35.8800 54.1666
35.8900 50.0000
35.9000 54.1666
35.9100 33.3334
35.9200 45.8334
35.9300 50.0000
35.9400 41.6666
35.9500 62.5000
35.9600 66.6666
35.9700 41.6666
35.9800 70.8334
35.9900 100.0000
36.0000 95.8334
36.0100 100.0000
36.0200 104.1666
36.0300 125.0000
36.0400 50.0000
36.0500 58.3334
36.0600 75.0000
36.0700 58.3334
36.0800 37.5000
36.0900 45.8334
36.1000 62.5000
36.1100 70.8334
36.1200 87.5000
36.1300 41.6666
36.1400 58.3334
36.1500 70.8334
36.1600 83.3334
36.1700 120.8334
36.1800 50.0000
36.1900 83.3334
36.2000 79.1666
36.2100 79.1666
36.2200 54.1666
36.2300 70.8334
36.2400 58.3334
36.2500 66.6666
36.2600 66.6666
36.2700 37.5000
36.2800 33.3334
36.2900 58.3334
36.3000 66.6666
36.3100 58.3334
36.3200 62.5000
36.3300 70.8334
36.3400 41.6666
36.3500 70.8334
36.3600 66.6666
36.3700 62.5000
36.3800 62.5000
36.3900 62.5000
36.4000 62.5000
36.4100 100.0000
36.4200 58.3334
36.4300 54.1666
36.4400 62.5000
36.4500 54.1666
36.4600 41.6666
36.4700 50.0000
36.4800 70.8334
36.4900 37.5000
36.5000 58.3334
36.5100 66.6666
36.5200 87.5000
36.5300 54.1666
36.5400 70.8334
36.5500 29.1666
36.5600 87.5000
36.5700 70.8334
36.5800 58.3334
36.5900 58.3334
36.6000 62.5000
36.6100 37.5000
36.6200 75.0000
36.6300 37.5000
36.6400 62.5000
36.6500 45.8334
36.6600 50.0000
36.6700 33.3334
36.6800 58.3334
36.6900 70.8334
36.7000 29.1666
36.7100 75.0000
36.7200 54.1666
36.7300 45.8334
36.7400 50.0000
36.7500 45.8334
36.7600 33.3334
36.7700 83.3334
36.7800 70.8334
36.7900 83.3334
36.8000 54.1666
36.8100 37.5000
36.8200 50.0000
36.8300 41.6666
36.8400 33.3334
36.8500 41.6666
36.8600 58.3334
36.8700 41.6666
36.8800 66.6666
36.8900 75.0000
36.9000 83.3334
36.9100 58.3334
36.9200 45.8334
36.9300 62.5000
36.9400 70.8334
36.9500 58.3334
36.9600 29.1666
36.9700 33.3334
36.9800 75.0000
36.9900 83.3334
37.0000 70.8334
37.0100 54.1666
37.0200 54.1666
37.0300 70.8334
37.0400 58.3334
37.0500 41.6666
37.0600 75.0000
37.0700 104.1666
37.0800 79.1666
37.0900 66.6666
37.1000 91.6666
37.1100 62.5000
37.1200 79.1666
37.1300 50.0000
37.1400 50.0000
37.1500 37.5000
37.1600 70.8334
37.1700 62.5000
37.1800 75.0000
37.1900 66.6666
37.2000 54.1666
37.2100 50.0000
37.2200 87.5000
37.2300 54.1666
37.2400 41.6666
37.2500 45.8334
37.2600 54.1666
37.2700 75.0000
37.2800 58.3334
37.2900 58.3334
37.3000 95.8334
37.3100 62.5000
37.3200 66.6666
37.3300 79.1666
37.3400 70.8334
37.3500 54.1666
37.3600 70.8334
37.3700 62.5000
37.3800 75.0000
37.3900 37.5000
37.4000 83.3334
37.4100 62.5000
37.4200 66.6666
37.4300 58.3334
37.4400 70.8334
37.4500 87.5000
37.4600 79.1666
37.4700 66.6666
37.4800 91.6666
37.4900 100.0000
37.5000 62.5000
37.5100 70.8334
37.5200 95.8334
37.5300 116.6666
37.5400 108.3334
37.5500 125.0000
37.5600 133.3334
37.5700 100.0000
37.5800 70.8334
37.5900 100.0000
37.6000 133.3334
37.6100 95.8334
37.6200 133.3334
37.6300 145.8334
37.6400 154.1666
37.6500 170.8334
37.6600 208.3334
37.6700 212.5000
37.6800 233.3334
37.6900 304.1666
37.7000 350.0000
37.7100 391.6666
37.7200 370.8334
37.7300 387.5000
37.7400 516.6666
37.7500 541.6666
37.7600 662.5000
37.7700 816.6666
37.7800 1104.1666
37.7900 1337.5000
37.8000 1654.1666
37.8100 2158.3334
37.8200 2495.8334
37.8300 2983.3334
37.8400 3325.0000
37.8500 3391.6666
37.8600 2966.6666
37.8700 2683.3334
37.8800 2020.8334
37.8900 1670.8334
37.9000 1245.8334
37.9100 958.3334
37.9200 675.0000
37.9300 545.8334
37.9400 500.0000
37.9500 375.0000
37.9600 345.8334
37.9700 250.0000
37.9800 291.6666
37.9900 295.8334
38.0000 254.1666
38.0100 229.1666
38.0200 241.6666
38.0300 266.6666
38.0400 308.3334
38.0500 225.0000
38.0600 275.0000
38.0700 287.5000
38.0800 258.3334
38.0900 275.0000
38.1000 233.3334
38.1100 295.8334
38.1200 320.8334
38.1300 316.6666
38.1400 362.5000
38.1500 275.0000
38.1600 266.6666
38.1700 216.6666
38.1800 229.1666
38.1900 225.0000
38.2000 233.3334
38.2100 220.8334
38.2200 233.3334
38.2300 275.0000
38.2400 183.3334
38.2500 183.3334
38.2600 145.8334
38.2700 241.6666
38.2800 245.8334
38.2900 216.6666
38.3000 300.0000
38.3100 291.6666
38.3200 320.8334
38.3300 345.8334
38.3400 375.0000
38.3500 366.6666
38.3600 500.0000
38.3700 554.1666
38.3800 737.5000
38.3900 816.6666
38.4000 825.0000
38.4100 654.1666
38.4200 679.1666
38.4300 508.3334
38.4400 433.3334
38.4500 320.8334
38.4600 233.3334
38.4700 187.5000
38.4800 116.6666
38.4900 150.0000
38.5000 145.8334
38.5100 137.5000
38.5200 95.8334
38.5300 79.1666
38.5400 100.0000
38.5500 91.6666
38.5600 87.5000
38.5700 108.3334
38.5800 79.1666
38.5900 70.8334
38.6000 95.8334
38.6100 125.0000
38.6200 91.6666
38.6300 91.6666
38.6400 87.5000
38.6500 87.5000
38.6600 66.6666
38.6700 83.3334
38.6800 100.0000
38.6900 100.0000
38.7000 87.5000
38.7100 116.6666
38.7200 62.5000
38.7300 91.6666
38.7400 100.0000
38.7500 70.8334
38.7600 91.6666
38.7700 70.8334
38.7800 141.6666
38.7900 141.6666
38.8000 125.0000
38.8100 104.1666
38.8200 145.8334
38.8300 108.3334
38.8400 116.6666
38.8500 166.6666
38.8600 166.6666
38.8700 158.3334
38.8800 158.3334
38.8900 154.1666
38.9000 220.8334
38.9100 200.0000
38.9200 266.6666
38.9300 300.0000
38.9400 408.3334
38.9500 583.3334
38.9600 641.6666
38.9700 841.6666
38.9800 1025.0000
38.9900 1091.6666
39.0000 1166.6666
39.0100 1270.8334
39.0200 1166.6666
39.0300 979.1666
39.0400 833.3334
39.0500 766.6666
39.0600 533.3334
39.0700 616.6666
39.0800 354.1666
39.0900 354.1666
39.1000 325.0000
39.1100 300.0000
39.1200 245.8334
39.1300 233.3334
39.1400 254.1666
39.1500 229.1666
39.1600 216.6666
39.1700 241.6666
39.1800 237.5000
39.1900 204.1666
39.2000 291.6666
39.2100 308.3334
39.2200 245.8334
39.2300 450.0000
39.2400 466.6666
39.2500 495.8334
39.2600 566.6666
39.2700 587.5000
39.2800 629.1666
39.2900 720.8334
39.3000 612.5000
39.3100 491.6666
39.3200 441.6666
39.3300 316.6666
39.3400 254.1666
39.3500 270.8334
39.3600 233.3334
39.3700 216.6666
39.3800 208.3334
39.3900 270.8334
39.4000 308.3334
39.4100 387.5000
39.4200 387.5000
39.4300 445.8334
39.4400 537.5000
39.4500 545.8334
39.4600 729.1666
39.4700 795.8334
39.4800 887.5000
39.4900 979.1666
39.5000 1058.3334
39.5100 1083.3334
39.5200 1225.0000
39.5300 1304.1666
39.5400 1183.3334
39.5500 1241.6666
39.5600 1154.1666
39.5700 929.1666
39.5800 820.8334
39.5900 725.0000
39.6000 612.5000
39.6100 437.5000
39.6200 420.8334
39.6300 350.0000
39.6400 275.0000
39.6500 287.5000
39.6600 200.0000
39.6700 166.6666
39.6800 187.5000
39.6900 154.1666
39.7000 212.5000
39.7100 162.5000
39.7200 183.3334
39.7300 204.1666
39.7400 216.6666
39.7500 200.0000
39.7600 183.3334
39.7700 200.0000
39.7800 179.1666
39.7900 229.1666
39.8000 141.6666
39.8100 208.3334
39.8200 200.0000
39.8300 266.6666
39.8400 287.5000
39.8500 287.5000
39.8600 300.0000
39.8700 329.1666
39.8800 283.3334
39.8900 337.5000
39.9000 354.1666
39.9100 387.5000
39.9200 508.3334
39.9300 504.1666
39.9400 529.1666
39.9500 612.5000
39.9600 762.5000
39.9700 891.6666
39.9800 1033.3334
39.9900 1137.5000
40.0000 1341.6666
40.0100 1804.1666
40.0200 2045.8334
40.0300 2537.5000
40.0400 3187.5000
40.0500 3791.6666
40.0600 4275.0000
40.0700 4700.0000
40.0800 5237.5000
40.0900 5645.8334
40.1000 5312.5000
40.1100 4862.5000
40.1200 3991.6666
40.1300 3145.8334
40.1400 2275.0000
40.1500 1800.0000
40.1600 1462.5000
40.1700 1083.3334
40.1800 816.6666
40.1900 679.1666
40.2000 558.3334
40.2100 475.0000
40.2200 450.0000
40.2300 383.3334
40.2400 320.8334
40.2500 262.5000
40.2600 266.6666
40.2700 266.6666
40.2800 291.6666
40.2900 225.0000
40.3000 262.5000
40.3100 233.3334
40.3200 212.5000
40.3300 195.8334
40.3400 179.1666
40.3500 237.5000
40.3600 175.0000
40.3700 166.6666
40.3800 183.3334
40.3900 195.8334
40.4000 137.5000
40.4100 150.0000
40.4200 225.0000
40.4300 129.1666
40.4400 129.1666
40.4500 129.1666
40.4600 104.1666
40.4700 87.5000
40.4800 87.5000
40.4900 100.0000
40.5000 104.1666
40.5100 87.5000
40.5200 104.1666
40.5300 100.0000
40.5400 79.1666
40.5500 91.6666
40.5600 87.5000
40.5700 104.1666
40.5800 91.6666
40.5900 70.8334
40.6000 62.5000
40.6100 66.6666
40.6200 75.0000
40.6300 70.8334
40.6400 87.5000
40.6500 95.8334
40.6600 75.0000
40.6700 62.5000
40.6800 75.0000
40.6900 62.5000
40.7000 62.5000
40.7100 75.0000
40.7200 75.0000
40.7300 75.0000
40.7400 83.3334
40.7500 100.0000
40.7600 87.5000
40.7700 66.6666
40.7800 45.8334
40.7900 75.0000
40.8000 62.5000
40.8100 62.5000
40.8200 83.3334
40.8300 87.5000
40.8400 95.8334
40.8500 75.0000
40.8600 75.0000
40.8700 50.0000
40.8800 70.8334
40.8900 83.3334
40.9000 95.8334
40.9100 83.3334
40.9200 104.1666
40.9300 100.0000
40.9400 120.8334
40.9500 91.6666
40.9600 108.3334
40.9700 120.8334
40.9800 133.3334
40.9900 133.3334
41.0000 120.8334
41.0100 150.0000
41.0200 133.3334
41.0300 145.8334
41.0400 187.5000
41.0500 208.3334
41.0600 233.3334
41.0700 262.5000
41.0800 229.1666
41.0900 312.5000
41.1000 345.8334
41.1100 391.6666
41.1200 375.0000
41.1300 391.6666
41.1400 454.1666
41.1500 408.3334
41.1600 466.6666
41.1700 483.3334
41.1800 516.6666
41.1900 450.0000
41.2000 433.3334
41.2100 458.3334
41.2200 425.0000
41.2300 362.5000
41.2400 358.3334
41.2500 250.0000
41.2600 291.6666
41.2700 183.3334
41.2800 195.8334
41.2900 175.0000
41.3000 179.1666
41.3100 170.8334
41.3200 129.1666
41.3300 125.0000
41.3400 120.8334
41.3500 141.6666
41.3600 104.1666
41.3700 91.6666
41.3800 79.1666
41.3900 108.3334
41.4000 108.3334
41.4100 66.6666
41.4200 58.3334
41.4300 62.5000
41.4400 58.3334
41.4500 87.5000
41.4600 70.8334
41.4700 87.5000
41.4800 83.3334
41.4900 91.6666
41.5000 108.3334
41.5100 75.0000
41.5200 79.1666
41.5300 79.1666
41.5400 83.3334
41.5500 87.5000
41.5600 75.0000
41.5700 87.5000
41.5800 95.8334
41.5900 95.8334
41.6000 66.6666
41.6100 75.0000
41.6200 70.8334
41.6300 70.8334
41.6400 100.0000
41.6500 66.6666
41.6600 87.5000
41.6700 112.5000
41.6800 120.8334
41.6900 91.6666
41.7000 125.0000
41.7100 104.1666
41.7200 179.1666
41.7300 129.1666
41.7400 141.6666
41.7500 141.6666
41.7600 158.3334
41.7700 166.6666
41.7800 254.1666
41.7900 270.8334
41.8000 212.5000
41.8100 250.0000
41.8200 287.5000
41.8300 320.8334
41.8400 304.1666
41.8500 258.3334
41.8600 350.0000
41.8700 245.8334
41.8800 233.3334
41.8900 237.5000
41.9000 283.3334
41.9100 283.3334
41.9200 225.0000
41.9300 158.3334
41.9400 183.3334
41.9500 233.3334
41.9600 187.5000
41.9700 150.0000
41.9800 212.5000
41.9900 145.8334
42.0000 95.8334
42.0100 166.6666
42.0200 162.5000
42.0300 104.1666
42.0400 129.1666
42.0500 120.8334
42.0600 129.1666
42.0700 100.0000
42.0800 116.6666
42.0900 104.1666
42.1000 79.1666
42.1100 70.8334
42.1200 95.8334
42.1300 70.8334
42.1400 120.8334
42.1500 112.5000
42.1600 137.5000
42.1700 116.6666
42.1800 129.1666
42.1900 120.8334
42.2000 166.6666
42.2100 212.5000
42.2200 200.0000
42.2300 233.3334
42.2400 229.1666
42.2500 208.3334
42.2600 216.6666
42.2700 200.0000
42.2800 216.6666
42.2900 170.8334
42.3000 154.1666
42.3100 108.3334
42.3200 129.1666
42.3300 100.0000
42.3400 83.3334
42.3500 120.8334
42.3600 100.0000
42.3700 95.8334
42.3800 104.1666
42.3900 87.5000
42.4000 58.3334
42.4100 75.0000
42.4200 83.3334
42.4300 75.0000
42.4400 45.8334
42.4500 66.6666
42.4600 62.5000
42.4700 87.5000
42.4800 91.6666
42.4900 70.8334
42.5000 70.8334
42.5100 75.0000
42.5200 54.1666
42.5300 79.1666
42.5400 54.1666
42.5500 45.8334
42.5600 116.6666
42.5700 100.0000
42.5800 75.0000
42.5900 58.3334
42.6000 62.5000
42.6100 58.3334
42.6200 100.0000
42.6300 50.0000
42.6400 45.8334
42.6500 87.5000
42.6600 79.1666
42.6700 66.6666
42.6800 87.5000
42.6900 50.0000
42.7000 83.3334
42.7100 83.3334
42.7200 79.1666
42.7300 91.6666
42.7400 83.3334
42.7500 91.6666
42.7600 108.3334
42.7700 120.8334
42.7800 125.0000
42.7900 100.0000
42.8000 108.3334
42.8100 145.8334
42.8200 179.1666
42.8300 108.3334
42.8400 83.3334
42.8500 87.5000
42.8600 100.0000
42.8700 95.8334
42.8800 95.8334
42.8900 79.1666
42.9000 95.8334
42.9100 66.6666
42.9200 83.3334
42.9300 100.0000
42.9400 70.8334
42.9500 54.1666
42.9600 33.3334
42.9700 75.0000
42.9800 62.5000
42.9900 62.5000
43.0000 66.6666
43.0100 50.0000
43.0200 54.1666
43.0300 66.6666
43.0400 50.0000
43.0500 58.3334
43.0600 79.1666
43.0700 20.8334
43.0800 70.8334
43.0900 75.0000
43.1000 75.0000
43.1100 45.8334
43.1200 50.0000
43.1300 41.6666
43.1400 54.1666
43.1500 54.1666
43.1600 75.0000
43.1700 50.0000
43.1800 45.8334
43.1900 87.5000
43.2000 54.1666
43.2100 91.6666
43.2200 66.6666
43.2300 37.5000
43.2400 70.8334
43.2500 91.6666
43.2600 79.1666
43.2700 50.0000
43.2800 54.1666
43.2900 50.0000
43.3000 83.3334
43.3100 62.5000
43.3200 54.1666
43.3300 66.6666
43.3400 62.5000
43.3500 66.6666
43.3600 66.6666
43.3700 91.6666
43.3800 70.8334
43.3900 75.0000
43.4000 83.3334
43.4100 87.5000
43.4200 95.8334
43.4300 58.3334
43.4400 116.6666
43.4500 83.3334
43.4600 87.5000
43.4700 75.0000
43.4800 120.8334
43.4900 87.5000
43.5000 108.3334
43.5100 83.3334
43.5200 66.6666
43.5300 70.8334
43.5400 87.5000
43.5500 87.5000
43.5600 70.8334
43.5700 70.8334
43.5800 75.0000
43.5900 70.8334
43.6000 66.6666
43.6100 58.3334
43.6200 66.6666
43.6300 79.1666
43.6400 70.8334
43.6500 95.8334
43.6600 83.3334
43.6700 100.0000
43.6800 91.6666
43.6900 91.6666
43.7000 91.6666
43.7100 75.0000
43.7200 87.5000
43.7300 87.5000
43.7400 120.8334
43.7500 100.0000
43.7600 91.6666
43.7700 70.8334
43.7800 62.5000
43.7900 45.8334
43.8000 62.5000
43.8100 87.5000
43.8200 83.3334
43.8300 45.8334
43.8400 70.8334
43.8500 79.1666
43.8600 50.0000
43.8700 37.5000
43.8800 66.6666
43.8900 83.3334
43.9000 87.5000
43.9100 66.6666
43.9200 100.0000
43.9300 125.0000
43.9400 116.6666
43.9500 79.1666
43.9600 104.1666
43.9700 112.5000
43.9800 104.1666
43.9900 91.6666
44.0000 141.6666
44.0100 116.6666
44.0200 120.8334
44.0300 104.1666
44.0400 108.3334
44.0500 95.8334
44.0600 125.0000
44.0700 125.0000
44.0800 150.0000
44.0900 129.1666
44.1000 158.3334
44.1100 187.5000
44.1200 154.1666
44.1300 204.1666
44.1400 208.3334
44.1500 212.5000
44.1600 183.3334
44.1700 262.5000
44.1800 316.6666
44.1900 241.6666
44.2000 287.5000
44.2100 366.6666
44.2200 420.8334
44.2300 454.1666
44.2400 479.1666
44.2500 537.5000
44.2600 629.1666
44.2700 783.3334
44.2800 1037.5000
44.2900 1216.6666
44.3000 1504.1666
44.3100 1804.1666
44.3200 1962.5000
44.3300 2037.5000
44.3400 2162.5000
44.3500 1979.1666
44.3600 1841.6666
44.3700 1495.8334
44.3800 1412.5000
44.3900 1075.0000
44.4000 958.3334
44.4100 750.0000
44.4200 729.1666
44.4300 637.5000
44.4400 537.5000
44.4500 541.6666
44.4600 445.8334
44.4700 358.3334
44.4800 366.6666
44.4900 354.1666
44.5000 350.0000
44.5100 345.8334
44.5200 308.3334
44.5300 325.0000
44.5400 245.8334
44.5500 225.0000
44.5600 220.8334
44.5700 204.1666
44.5800 212.5000
44.5900 179.1666
44.6000 229.1666
44.6100 150.0000
44.6200 141.6666
44.6300 170.8334
44.6400 179.1666
44.6500 137.5000
44.6600 145.8334
44.6700 187.5000
44.6800 133.3334
44.6900 116.6666
44.7000 137.5000
44.7100 116.6666
44.7200 129.1666
44.7300 95.8334
44.7400 79.1666
44.7500 83.3334
44.7600 112.5000
44.7700 125.0000
44.7800 137.5000
44.7900 116.6666
44.8000 120.8334
44.8100 83.3334
44.8200 112.5000
44.8300 104.1666
44.8400 100.0000
44.8500 112.5000
44.8600 125.0000
44.8700 133.3334
44.8800 120.8334
44.8900 133.3334
44.9000 137.5000
44.9100 116.6666
44.9200 91.6666
44.9300 95.8334
44.9400 133.3334
44.9500 133.3334
44.9600 79.1666
44.9700 83.3334
44.9800 79.1666
44.9900 91.6666
45.0000 79.1666
45.0100 87.5000
45.0200 100.0000
45.0300 104.1666
45.0400 83.3334
45.0500 91.6666
45.0600 70.8334
45.0700 79.1666
45.0800 50.0000
45.0900 54.1666
45.1000 87.5000
45.1100 70.8334
45.1200 25.0000
45.1300 58.3334
45.1400 87.5000
45.1500 66.6666
45.1600 100.0000
45.1700 70.8334
45.1800 70.8334
45.1900 70.8334
45.2000 75.0000
45.2100 50.0000
45.2200 66.6666
45.2300 70.8334
45.2400 70.8334
45.2500 58.3334
45.2600 100.0000
45.2700 79.1666
45.2800 58.3334
45.2900 54.1666
45.3000 58.3334
45.3100 83.3334
45.3200 79.1666
45.3300 108.3334
45.3400 100.0000
45.3500 66.6666
45.3600 54.1666
45.3700 58.3334
45.3800 70.8334
45.3900 83.3334
45.4000 62.5000
45.4100 83.3334
45.4200 50.0000
45.4300 70.8334
45.4400 66.6666
45.4500 83.3334
45.4600 70.8334
45.4700 62.5000
45.4800 79.1666
45.4900 95.8334
45.5000 75.0000
45.5100 66.6666
45.5200 70.8334
45.5300 58.3334
45.5400 58.3334
45.5500 58.3334
45.5600 120.8334
45.5700 112.5000
45.5800 58.3334
45.5900 75.0000
45.6000 100.0000
45.6100 116.6666
45.6200 104.1666
45.6300 116.6666
45.6400 108.3334
45.6500 145.8334
45.6600 104.1666
45.6700 100.0000
45.6800 95.8334
45.6900 79.1666
45.7000 112.5000
45.7100 145.8334
45.7200 150.0000
45.7300 95.8334
45.7400 133.3334
45.7500 108.3334
45.7600 112.5000
45.7700 145.8334
45.7800 141.6666
45.7900 145.8334
45.8000 137.5000
45.8100 150.0000
45.8200 200.0000
45.8300 191.6666
45.8400 212.5000
45.8500 216.6666
45.8600 266.6666
45.8700 250.0000
45.8800 266.6666
45.8900 254.1666
45.9000 383.3334
45.9100 408.3334
45.9200 458.3334
45.9300 504.1666
45.9400 533.3334
45.9500 525.0000
45.9600 595.8334
45.9700 616.6666
45.9800 545.8334
45.9900 470.8334
46.0000 545.8334
46.0100 600.0000
46.0200 475.0000
46.0300 504.1666
46.0400 525.0000
46.0500 479.1666
46.0600 400.0000
46.0700 475.0000
46.0800 437.5000
46.0900 466.6666
46.1000 462.5000
46.1100 466.6666
46.1200 533.3334
46.1300 512.5000
46.1400 508.3334
46.1500 495.8334
46.1600 520.8334
46.1700 479.1666
46.1800 554.1666
46.1900 575.0000
46.2000 475.0000
46.2100 579.1666
46.2200 525.0000
46.2300 475.0000
46.2400 579.1666
46.2500 604.1666
46.2600 704.1666
46.2700 720.8334
46.2800 820.8334
46.2900 962.5000
46.3000 1108.3334
46.3100 1141.6666
46.3200 1166.6666
46.3300 1241.6666
46.3400 1141.6666
46.3500 1029.1666
46.3600 812.5000
46.3700 708.3334
46.3800 520.8334
46.3900 420.8334
46.4000 387.5000
46.4100 300.0000
46.4200 270.8334
46.4300 262.5000
46.4400 233.3334
46.4500 200.0000
46.4600 195.8334
46.4700 150.0000
46.4800 145.8334
46.4900 133.3334
46.5000 154.1666
46.5100 158.3334
46.5200 91.6666
46.5300 108.3334
46.5400 95.8334
46.5500 170.8334
46.5600 120.8334
46.5700 137.5000
46.5800 108.3334
46.5900 70.8334
46.6000 70.8334
46.6100 100.0000
46.6200 83.3334
46.6300 95.8334
46.6400 104.1666
46.6500 83.3334
46.6600 112.5000
46.6700 87.5000
46.6800 104.1666
46.6900 87.5000
46.7000 100.0000
46.7100 87.5000
46.7200 83.3334
46.7300 87.5000
46.7400 91.6666
46.7500 79.1666
46.7600 87.5000
46.7700 79.1666
46.7800 120.8334
46.7900 116.6666
46.8000 87.5000
46.8100 129.1666
46.8200 108.3334
46.8300 116.6666
46.8400 133.3334
46.8500 183.3334
46.8600 154.1666
46.8700 200.0000
46.8800 179.1666
46.8900 200.0000
46.9000 233.3334
46.9100 233.3334
46.9200 216.6666
46.9300 179.1666
46.9400 187.5000
46.9500 137.5000
46.9600 129.1666
46.9700 158.3334
46.9800 104.1666
46.9900 100.0000
47.0000 108.3334
47.0100 75.0000
47.0200 58.3334
47.0300 108.3334
47.0400 75.0000
47.0500 100.0000
47.0600 120.8334
47.0700 120.8334
47.0800 129.1666
47.0900 125.0000
47.1000 162.5000
47.1100 141.6666
47.1200 100.0000
47.1300 175.0000
47.1400 195.8334
47.1500 225.0000
47.1600 241.6666
47.1700 262.5000
47.1800 283.3334
47.1900 345.8334
47.2000 370.8334
47.2100 495.8334
47.2200 550.0000
47.2300 675.0000
47.2400 758.3334
47.2500 870.8334
47.2600 1037.5000
47.2700 1275.0000
47.2800 1312.5000
47.2900 1570.8334
47.3000 1700.0000
47.3100 1666.6666
47.3200 1441.6666
47.3300 1425.0000
47.3400 1195.8334
47.3500 958.3334
47.3600 800.0000
47.3700 579.1666
47.3800 420.8334
47.3900 420.8334
47.4000 283.3334
47.4100 333.3334
47.4200 254.1666
47.4300 220.8334
47.4400 216.6666
47.4500 179.1666
47.4600 116.6666
47.4700 137.5000
47.4800 129.1666
47.4900 141.6666
47.5000 100.0000
47.5100 100.0000
47.5200 125.0000
47.5300 87.5000
47.5400 83.3334
47.5500 75.0000
47.5600 95.8334
47.5700 75.0000
47.5800 70.8334
47.5900 66.6666
47.6000 79.1666
47.6100 87.5000
47.6200 108.3334
47.6300 95.8334
47.6400 125.0000
47.6500 125.0000
47.6600 104.1666
47.6700 141.6666
47.6800 154.1666
47.6900 116.6666
47.7000 108.3334
47.7100 162.5000
47.7200 158.3334
47.7300 150.0000
47.7400 145.8334
47.7500 183.3334
47.7600 229.1666
47.7700 187.5000
47.7800 204.1666
47.7900 212.5000
47.8000 120.8334
47.8100 137.5000
47.8200 108.3334
47.8300 137.5000
47.8400 75.0000
47.8500 70.8334
47.8600 75.0000
47.8700 83.3334
47.8800 45.8334
47.8900 62.5000
47.9000 58.3334
47.9100 70.8334
47.9200 79.1666
47.9300 83.3334
47.9400 70.8334
47.9500 54.1666
47.9600 75.0000
47.9700 70.8334
47.9800 41.6666
47.9900 70.8334
48.0000 83.3334
48.0100 75.0000
48.0200 33.3334
48.0300 54.1666
48.0400 70.8334
48.0500 75.0000
48.0600 83.3334
48.0700 70.8334
48.0800 91.6666
48.0900 87.5000
48.1000 100.0000
48.1100 108.3334
48.1200 95.8334
48.1300 125.0000
48.1400 120.8334
48.1500 150.0000
48.1600 166.6666
48.1700 179.1666
48.1800 187.5000
48.1900 212.5000
48.2000 166.6666
48.2100 229.1666
48.2200 229.1666
48.2300 254.1666
48.2400 258.3334
48.2500 362.5000
48.2600 300.0000
48.2700 258.3334
48.2800 258.3334
48.2900 270.8334
48.3000 241.6666
48.3100 204.1666
48.3200 216.6666
48.3300 250.0000
48.3400 162.5000
48.3500 183.3334
48.3600 145.8334
48.3700 137.5000
48.3800 145.8334
48.3900 116.6666
48.4000 108.3334
48.4100 116.6666
48.4200 120.8334
48.4300 108.3334
48.4400 91.6666
48.4500 87.5000
48.4600 75.0000
48.4700 100.0000
48.4800 95.8334
48.4900 54.1666
48.5000 58.3334
48.5100 62.5000
48.5200 66.6666
48.5300 62.5000
48.5400 83.3334
48.5500 50.0000
48.5600 41.6666
48.5700 75.0000
48.5800 50.0000
48.5900 58.3334
48.6000 45.8334
48.6100 45.8334
48.6200 50.0000
48.6300 58.3334
48.6400 54.1666
48.6500 45.8334
48.6600 58.3334
48.6700 58.3334
48.6800 83.3334
48.6900 45.8334
48.7000 33.3334
48.7100 37.5000
48.7200 45.8334
48.7300 50.0000
48.7400 33.3334
48.7500 41.6666
48.7600 41.6666
48.7700 41.6666
48.7800 54.1666
48.7900 41.6666
48.8000 37.5000
48.8100 45.8334
48.8200 45.8334
48.8300 37.5000
48.8400 29.1666
48.8500 41.6666
48.8600 62.5000
48.8700 50.0000
48.8800 62.5000
48.8900 62.5000
48.9000 45.8334
48.9100 45.8334
48.9200 54.1666
48.9300 50.0000
48.9400 66.6666
48.9500 75.0000
48.9600 33.3334
48.9700 45.8334
48.9800 58.3334
48.9900 45.8334
49.0000 62.5000
49.0100 41.6666
49.0200 29.1666
49.0300 66.6666
49.0400 104.1666
49.0500 41.6666
49.0600 66.6666
49.0700 79.1666
49.0800 66.6666
49.0900 116.6666
49.1000 141.6666
49.1100 108.3334
49.1200 137.5000
49.1300 158.3334
49.1400 145.8334
49.1500 158.3334
49.1600 200.0000
49.1700 225.0000
49.1800 195.8334
49.1900 208.3334
49.2000 241.6666
49.2100 179.1666
49.2200 237.5000
49.2300 220.8334
49.2400 150.0000
49.2500 191.6666
49.2600 125.0000
49.2700 112.5000
49.2800 108.3334
49.2900 79.1666
49.3000 79.1666
49.3100 83.3334
49.3200 100.0000
49.3300 75.0000
49.3400 50.0000
49.3500 70.8334
49.3600 70.8334
49.3700 58.3334
49.3800 54.1666
49.3900 50.0000
49.4000 54.1666
49.4100 58.3334
49.4200 50.0000
49.4300 45.8334
49.4400 50.0000
49.4500 54.1666
49.4600 50.0000
49.4700 33.3334
49.4800 58.3334
49.4900 41.6666
49.5000 33.3334
49.5100 54.1666
49.5200 70.8334
49.5300 79.1666
49.5400 54.1666
49.5500 66.6666
49.5600 37.5000
49.5700 37.5000
49.5800 75.0000
49.5900 70.8334
49.6000 45.8334
49.6100 66.6666
49.6200 58.3334
49.6300 41.6666
49.6400 50.0000
49.6500 50.0000
49.6600 50.0000
49.6700 58.3334
49.6800 50.0000
49.6900 37.5000
49.7000 25.0000
49.7100 29.1666
49.7200 45.8334
49.7300 25.0000
49.7400 37.5000
49.7500 45.8334
49.7600 33.3334
49.7700 41.6666
49.7800 45.8334
49.7900 58.3334
49.8000 50.0000
49.8100 41.6666
49.8200 54.1666
49.8300 37.5000
49.8400 45.8334
49.8500 41.6666
49.8600 58.3334
49.8700 58.3334
49.8800 16.6666
49.8900 45.8334
49.9000 33.3334
49.9100 20.8334
49.9200 41.6666
49.9300 58.3334
49.9400 50.0000
49.9500 41.6666
49.9600 41.6666
49.9700 66.6666
49.9800 50.0000
49.9900 45.8334
50.0000 33.3334
50.0100 37.5000
50.0200 50.0000
50.0300 50.0000
50.0400 50.0000
50.0500 66.6666
50.0600 66.6666
50.0700 79.1666
50.0800 58.3334
50.0900 95.8334
50.1000 70.8334
50.1100 116.6666
50.1200 87.5000
50.1300 87.5000
50.1400 100.0000
50.1500 100.0000
50.1600 83.3334
50.1700 70.8334
50.1800 66.6666
50.1900 100.0000
50.2000 83.3334
50.2100 79.1666
50.2200 66.6666
50.2300 62.5000
50.2400 37.5000
50.2500 58.3334
50.2600 70.8334
50.2700 54.1666
50.2800 70.8334
50.2900 83.3334
50.3000 75.0000
50.3100 91.6666
50.3200 91.6666
50.3300 87.5000
50.3400 79.1666
50.3500 62.5000
50.3600 95.8334
50.3700 58.3334
50.3800 62.5000
50.3900 62.5000
50.4000 45.8334
50.4100 75.0000
50.4200 83.3334
50.4300 66.6666
50.4400 58.3334
50.4500 87.5000
50.4600 116.6666
50.4700 75.0000
50.4800 83.3334
50.4900 87.5000
50.5000 45.8334
50.5100 75.0000
50.5200 87.5000
50.5300 54.1666
50.5400 45.8334
50.5500 45.8334
50.5600 50.0000
50.5700 37.5000
50.5800 37.5000
50.5900 66.6666
50.6000 25.0000
50.6100 41.6666
50.6200 58.3334
50.6300 50.0000
50.6400 50.0000
50.6500 58.3334
50.6600 75.0000
50.6700 37.5000
50.6800 83.3334
50.6900 83.3334
50.7000 58.3334
50.7100 45.8334
50.7200 37.5000
50.7300 66.6666
50.7400 62.5000
50.7500 58.3334
50.7600 50.0000
50.7700 54.1666
50.7800 33.3334
50.7900 41.6666
50.8000 66.6666
50.8100 75.0000
50.8200 66.6666
50.8300 50.0000
50.8400 58.3334
50.8500 58.3334
50.8600 54.1666
50.8700 50.0000
50.8800 45.8334
50.8900 79.1666
50.9000 54.1666
50.9100 66.6666
50.9200 70.8334
50.9300 50.0000
50.9400 41.6666
50.9500 29.1666
50.9600 29.1666
50.9700 29.1666
50.9800 33.3334
50.9900 20.8334
51.0000 41.6666
51.0100 25.0000
51.0200 75.0000
51.0300 16.6666
51.0400 25.0000
51.0500 25.0000
51.0600 16.6666
51.0700 37.5000
51.0800 41.6666
51.0900 41.6666
51.1000 16.6666
51.1100 33.3334
51.1200 45.8334
51.1300 12.5000
51.1400 20.8334
51.1500 41.6666
51.1600 29.1666
51.1700 41.6666
51.1800 58.3334
51.1900 50.0000
51.2000 41.6666
51.2100 33.3334
51.2200 29.1666
51.2300 33.3334
51.2400 25.0000
51.2500 25.0000
51.2600 37.5000
51.2700 20.8334
51.2800 33.3334
51.2900 37.5000
51.3000 20.8334
51.3100 29.1666
51.3200 33.3334
51.3300 45.8334
51.3400 50.0000
51.3500 29.1666
51.3600 25.0000
51.3700 33.3334
51.3800 37.5000
51.3900 45.8334
51.4000 37.5000
51.4100 45.8334
51.4200 25.0000
51.4300 37.5000
51.4400 41.6666
51.4500 16.6666
51.4600 25.0000
51.4700 45.8334
51.4800 20.8334
51.4900 29.1666
51.5000 25.0000
51.5100 25.0000
51.5200 41.6666
51.5300 37.5000
51.5400 16.6666
51.5500 25.0000
51.5600 12.5000
51.5700 25.0000
51.5800 37.5000
51.5900 25.0000
51.6000 25.0000
51.6100 20.8334
51.6200 45.8334
51.6300 29.1666
51.6400 25.0000
51.6500 33.3334
51.6600 25.0000
51.6700 37.5000
51.6800 41.6666
51.6900 41.6666
51.7000 41.6666
51.7100 37.5000
51.7200 33.3334
51.7300 41.6666
51.7400 33.3334
51.7500 20.8334
51.7600 29.1666
51.7700 41.6666
51.7800 41.6666
51.7900 33.3334
51.8000 29.1666
51.8100 37.5000
51.8200 62.5000
51.8300 37.5000
51.8400 54.1666
51.8500 50.0000
51.8600 37.5000
51.8700 37.5000
51.8800 66.6666
51.8900 50.0000
51.9000 41.6666
51.9100 66.6666
51.9200 87.5000
51.9300 66.6666
51.9400 75.0000
51.9500 79.1666
51.9600 83.3334
51.9700 87.5000
51.9800 50.0000
51.9900 75.0000
52.0000 62.5000
52.0100 70.8334
52.0200 104.1666
52.0300 62.5000
52.0400 70.8334
52.0500 79.1666
52.0600 62.5000
52.0700 33.3334
52.0800 70.8334
52.0900 45.8334
52.1000 25.0000
52.1100 41.6666
52.1200 37.5000
52.1300 33.3334
52.1400 54.1666
52.1500 45.8334
52.1600 25.0000
52.1700 54.1666
52.1800 41.6666
52.1900 20.8334
52.2000 33.3334
52.2100 66.6666
52.2200 45.8334
52.2300 37.5000
52.2400 29.1666
52.2500 33.3334
52.2600 50.0000
52.2700 50.0000
52.2800 29.1666
52.2900 54.1666
52.3000 54.1666
52.3100 41.6666
52.3200 45.8334
52.3300 54.1666
52.3400 29.1666
52.3500 37.5000
52.3600 20.8334
52.3700 20.8334
52.3800 29.1666
52.3900 20.8334
52.4000 29.1666
52.4100 50.0000
52.4200 29.1666
52.4300 45.8334
52.4400 45.8334
52.4500 58.3334
52.4600 33.3334
52.4700 33.3334
52.4800 70.8334
52.4900 54.1666
52.5000 70.8334
52.5100 62.5000
52.5200 54.1666
52.5300 70.8334
52.5400 54.1666
52.5500 66.6666
52.5600 41.6666
52.5700 50.0000
52.5800 70.8334
52.5900 95.8334
52.6000 50.0000
52.6100 45.8334
52.6200 58.3334
52.6300 91.6666
52.6400 37.5000
52.6500 66.6666
52.6600 54.1666
52.6700 54.1666
52.6800 37.5000
52.6900 37.5000
52.7000 41.6666
52.7100 41.6666
52.7200 54.1666
52.7300 45.8334
52.7400 62.5000
52.7500 45.8334
52.7600 50.0000
52.7700 33.3334
52.7800 33.3334
52.7900 33.3334
52.8000 37.5000
52.8100 37.5000
52.8200 37.5000
52.8300 45.8334
52.8400 79.1666
52.8500 37.5000
52.8600 37.5000
52.8700 58.3334
52.8800 91.6666
52.8900 83.3334
52.9000 62.5000
52.9100 66.6666
52.9200 45.8334
52.9300 54.1666
52.9400 50.0000
52.9500 33.3334
52.9600 20.8334
52.9700 45.8334
52.9800 37.5000
52.9900 33.3334
53.0000 50.0000
53.0100 41.6666
53.0200 25.0000
53.0300 16.6666
53.0400 45.8334
53.0500 25.0000
53.0600 41.6666
53.0700 45.8334
53.0800 33.3334
53.0900 25.0000
53.1000 29.1666
53.1100 25.0000
53.1200 33.3334
53.1300 37.5000
53.1400 4.1666
53.1500 12.5000
53.1600 54.1666
53.1700 45.8334
53.1800 37.5000
53.1900 41.6666
53.2000 75.0000
53.2100 58.3334
53.2200 33.3334
53.2300 70.8334
53.2400 54.1666
53.2500 54.1666
53.2600 66.6666
53.2700 79.1666
53.2800 54.1666
53.2900 75.0000
53.3000 91.6666
53.3100 54.1666
53.3200 50.0000
53.3300 45.8334
53.3400 54.1666
53.3500 20.8334
53.3600 41.6666
53.3700 25.0000
53.3800 20.8334
53.3900 20.8334
53.4000 50.0000
53.4100 20.8334
53.4200 25.0000
53.4300 20.8334
53.4400 12.5000
53.4500 20.8334
53.4600 33.3334
53.4700 41.6666
53.4800 58.3334
53.4900 20.8334
53.5000 33.3334
53.5100 29.1666
53.5200 16.6666
53.5300 16.6666
53.5400 20.8334
53.5500 25.0000
53.5600 41.6666
53.5700 41.6666
53.5800 50.0000
53.5900 33.3334
53.6000 29.1666
53.6100 37.5000
53.6200 37.5000
53.6300 37.5000
53.6400 45.8334
53.6500 33.3334
53.6600 62.5000
53.6700 50.0000
53.6800 29.1666
53.6900 29.1666
53.7000 37.5000
53.7100 54.1666
53.7200 58.3334
53.7300 41.6666
53.7400 37.5000
53.7500 41.6666
53.7600 45.8334
53.7700 58.3334
53.7800 25.0000
53.7900 29.1666
53.8000 45.8334
53.8100 54.1666
53.8200 37.5000
53.8300 45.8334
53.8400 37.5000
53.8500 62.5000
53.8600 50.0000
53.8700 41.6666
53.8800 45.8334
53.8900 50.0000
53.9000 20.8334
53.9100 37.5000
53.9200 29.1666
53.9300 37.5000
53.9400 37.5000
53.9500 20.8334
53.9600 25.0000
53.9700 29.1666
53.9800 25.0000
53.9900 8.3334
54.0000 37.5000
54.0100 16.6666
54.0200 29.1666
54.0300 29.1666
54.0400 25.0000
54.0500 33.3334
54.0600 29.1666
54.0700 29.1666
54.0800 41.6666
54.0900 37.5000
54.1000 25.0000
54.1100 45.8334
54.1200 50.0000
54.1300 16.6666
54.1400 16.6666
54.1500 20.8334
54.1600 41.6666
54.1700 33.3334
54.1800 29.1666
54.1900 50.0000
54.2000 37.5000
54.2100 83.3334
54.2200 50.0000
54.2300 29.1666
54.2400 54.1666
54.2500 54.1666
54.2600 50.0000
54.2700 41.6666
54.2800 62.5000
54.2900 41.6666
54.3000 79.1666
54.3100 62.5000
54.3200 41.6666
54.3300 62.5000
54.3400 83.3334
54.3500 70.8334
54.3600 50.0000
54.3700 41.6666
54.3800 33.3334
54.3900 41.6666
54.4000 20.8334
54.4100 62.5000
54.4200 66.6666
54.4300 45.8334
54.4400 29.1666
54.4500 41.6666
54.4600 33.3334
54.4700 45.8334
54.4800 58.3334
54.4900 37.5000
54.5000 50.0000
54.5100 58.3334
54.5200 58.3334
54.5300 70.8334
54.5400 62.5000
54.5500 70.8334
54.5600 54.1666
54.5700 70.8334
54.5800 50.0000
54.5900 62.5000
54.6000 45.8334
54.6100 75.0000
54.6200 58.3334
54.6300 66.6666
54.6400 58.3334
54.6500 70.8334
54.6600 50.0000
54.6700 37.5000
54.6800 58.3334
54.6900 62.5000
54.7000 62.5000
54.7100 58.3334
54.7200 50.0000
54.7300 58.3334
54.7400 41.6666
54.7500 58.3334
54.7600 58.3334
54.7700 33.3334
54.7800 45.8334
54.7900 37.5000
54.8000 33.3334
54.8100 37.5000
54.8200 50.0000
54.8300 37.5000
54.8400 45.8334
54.8500 45.8334
54.8600 79.1666
54.8700 37.5000
54.8800 54.1666
54.8900 41.6666
54.9000 50.0000
54.9100 41.6666
54.9200 50.0000
54.9300 54.1666
54.9400 45.8334
54.9500 45.8334
54.9600 45.8334
54.9700 54.1666
54.9800 33.3334
54.9900 41.6666
55.0000 37.5000
55.0100 50.0000
55.0200 33.3334
55.0300 41.6666
55.0400 45.8334
55.0500 45.8334
55.0600 50.0000
55.0700 50.0000
55.0800 58.3334
55.0900 29.1666
55.1000 58.3334
55.1100 41.6666
55.1200 66.6666
55.1300 37.5000
55.1400 45.8334
55.1500 37.5000
55.1600 45.8334
55.1700 16.6666
55.1800 29.1666
55.1900 25.0000
55.2000 33.3334
55.2100 33.3334
55.2200 45.8334
55.2300 37.5000
55.2400 45.8334
55.2500 33.3334
55.2600 45.8334
55.2700 33.3334
55.2800 37.5000
55.2900 50.0000
55.3000 37.5000
55.3100 41.6666
55.3200 37.5000
55.3300 33.3334
55.3400 54.1666
55.3500 33.3334
55.3600 20.8334
55.3700 37.5000
55.3800 12.5000
55.3900 41.6666
55.4000 45.8334
55.4100 41.6666
55.4200 54.1666
55.4300 62.5000
55.4400 45.8334
55.4500 29.1666
55.4600 66.6666
55.4700 91.6666
55.4800 41.6666
55.4900 33.3334
55.5000 37.5000
55.5100 29.1666
55.5200 50.0000
55.5300 45.8334
55.5400 37.5000
55.5500 45.8334
55.5600 45.8334
55.5700 25.0000
55.5800 33.3334
55.5900 41.6666
55.6000 58.3334
55.6100 20.8334
55.6200 41.6666
55.6300 58.3334
55.6400 33.3334
55.6500 58.3334
55.6600 33.3334
55.6700 45.8334
55.6800 25.0000
55.6900 50.0000
55.7000 33.3334
55.7100 25.0000
55.7200 33.3334
55.7300 50.0000
55.7400 33.3334
55.7500 33.3334
55.7600 37.5000
55.7700 37.5000
55.7800 37.5000
55.7900 37.5000
55.8000 58.3334
55.8100 45.8334
55.8200 41.6666
55.8300 37.5000
55.8400 33.3334
55.8500 45.8334
55.8600 41.6666
55.8700 29.1666
55.8800 33.3334
55.8900 29.1666
55.9000 54.1666
55.9100 8.3334
55.9200 29.1666
55.9300 62.5000
55.9400 25.0000
55.9500 25.0000
55.9600 37.5000
55.9700 25.0000
55.9800 25.0000
55.9900 50.0000
56.0000 45.8334
56.0100 33.3334
56.0200 37.5000
56.0300 37.5000
56.0400 33.3334
56.0500 50.0000
56.0600 58.3334
56.0700 37.5000
56.0800 33.3334
56.0900 54.1666
56.1000 41.6666
56.1100 25.0000
56.1200 37.5000
56.1300 25.0000
56.1400 25.0000
56.1500 41.6666
56.1600 16.6666
56.1700 16.6666
56.1800 16.6666
56.1900 25.0000
56.2000 37.5000
56.2100 29.1666
56.2200 33.3334
56.2300 41.6666
56.2400 45.8334
56.2500 12.5000
56.2600 25.0000
56.2700 58.3334
56.2800 66.6666
56.2900 45.8334
56.3000 54.1666
56.3100 50.0000
56.3200 87.5000
56.3300 100.0000
56.3400 45.8334
56.3500 41.6666
56.3600 75.0000
56.3700 29.1666
56.3800 75.0000
56.3900 66.6666
56.4000 41.6666
56.4100 66.6666
56.4200 70.8334
56.4300 58.3334
56.4400 50.0000
56.4500 45.8334
56.4600 62.5000
56.4700 16.6666
56.4800 45.8334
56.4900 45.8334
56.5000 45.8334
56.5100 37.5000
56.5200 37.5000
56.5300 29.1666
56.5400 45.8334
56.5500 54.1666
56.5600 33.3334
56.5700 37.5000
56.5800 33.3334
56.5900 29.1666
56.6000 16.6666
56.6100 33.3334
56.6200 29.1666
56.6300 12.5000
56.6400 33.3334
56.6500 20.8334
56.6600 41.6666
56.6700 45.8334
56.6800 29.1666
56.6900 37.5000
56.7000 25.0000
56.7100 25.0000
56.7200 29.1666
56.7300 33.3334
56.7400 33.3334
56.7500 41.6666
56.7600 16.6666
56.7700 20.8334
56.7800 41.6666
56.7900 25.0000
56.8000 20.8334
56.8100 45.8334
56.8200 12.5000
56.8300 16.6666
56.8400 33.3334
56.8500 41.6666
56.8600 54.1666
56.8700 41.6666
56.8800 37.5000
56.8900 33.3334
56.9000 33.3334
56.9100 25.0000
56.9200 66.6666
56.9300 33.3334
56.9400 45.8334
56.9500 54.1666
56.9600 41.6666
56.9700 58.3334
56.9800 45.8334
56.9900 50.0000
57.0000 45.8334
57.0100 62.5000
57.0200 37.5000
57.0300 25.0000
57.0400 58.3334
57.0500 75.0000
57.0600 54.1666
57.0700 58.3334
57.0800 75.0000
57.0900 87.5000
57.1000 104.1666
57.1100 79.1666
57.1200 58.3334
57.1300 100.0000
57.1400 112.5000
57.1500 108.3334
57.1600 112.5000
57.1700 133.3334
57.1800 141.6666
57.1900 179.1666
57.2000 145.8334
57.2100 183.3334
57.2200 137.5000
57.2300 100.0000
57.2400 125.0000
57.2500 145.8334
57.2600 108.3334
57.2700 87.5000
57.2800 100.0000
57.2900 70.8334
57.3000 70.8334
57.3100 83.3334
57.3200 66.6666
57.3300 83.3334
57.3400 54.1666
57.3500 50.0000
57.3600 79.1666
57.3700 108.3334
57.3800 79.1666
57.3900 70.8334
57.4000 75.0000
57.4100 66.6666
57.4200 54.1666
57.4300 58.3334
57.4400 50.0000
57.4500 37.5000
57.4600 25.0000
57.4700 50.0000
57.4800 45.8334
57.4900 62.5000
57.5000 54.1666
57.5100 37.5000
57.5200 41.6666
57.5300 41.6666
57.5400 58.3334
57.5500 45.8334
57.5600 20.8334
57.5700 41.6666
57.5800 25.0000
57.5900 37.5000
57.6000 33.3334
57.6100 50.0000
57.6200 37.5000
57.6300 25.0000
57.6400 12.5000
57.6500 25.0000
57.6600 25.0000
57.6700 20.8334
57.6800 45.8334
57.6900 41.6666
57.7000 25.0000
57.7100 16.6666
57.7200 33.3334
57.7300 25.0000
57.7400 50.0000
57.7500 29.1666
57.7600 37.5000
57.7700 25.0000
57.7800 29.1666
57.7900 41.6666
57.8000 29.1666
57.8100 37.5000
57.8200 54.1666
57.8300 54.1666
57.8400 33.3334
57.8500 29.1666
57.8600 20.8334
57.8700 33.3334
57.8800 33.3334
57.8900 37.5000
57.9000 16.6666
57.9100 20.8334
57.9200 29.1666
57.9300 37.5000
57.9400 29.1666
57.9500 25.0000
57.9600 33.3334
57.9700 29.1666
57.9800 37.5000
57.9900 45.8334
58.0000 20.8334
58.0100 33.3334
58.0200 8.3334
58.0300 29.1666
58.0400 29.1666
58.0500 20.8334
58.0600 12.5000
58.0700 37.5000
58.0800 54.1666
58.0900 41.6666
58.1000 41.6666
58.1100 41.6666
58.1200 29.1666
58.1300 37.5000
58.1400 25.0000
58.1500 29.1666
58.1600 16.6666
58.1700 16.6666
58.1800 20.8334
58.1900 45.8334
58.2000 33.3334
58.2100 37.5000
58.2200 45.8334
58.2300 29.1666
58.2400 29.1666
58.2500 37.5000
58.2600 33.3334
58.2700 16.6666
58.2800 8.3334
58.2900 20.8334
58.3000 12.5000
58.3100 8.3334
58.3200 20.8334
58.3300 20.8334
58.3400 41.6666
58.3500 33.3334
58.3600 37.5000
58.3700 12.5000
58.3800 37.5000
58.3900 16.6666
58.4000 20.8334
58.4100 8.3334
58.4200 20.8334
58.4300 29.1666
58.4400 4.1666
58.4500 16.6666
58.4600 16.6666
58.4700 12.5000
58.4800 25.0000
58.4900 20.8334
58.5000 12.5000
58.5100 50.0000
58.5200 29.1666
58.5300 20.8334
58.5400 25.0000
58.5500 20.8334
58.5600 37.5000
58.5700 20.8334
58.5800 16.6666
58.5900 12.5000
58.6000 29.1666
58.6100 37.5000
58.6200 50.0000
58.6300 29.1666
58.6400 29.1666
58.6500 33.3334
58.6600 25.0000
58.6700 25.0000
58.6800 29.1666
58.6900 20.8334
58.7000 33.3334
58.7100 33.3334
58.7200 41.6666
58.7300 41.6666
58.7400 58.3334
58.7500 75.0000
58.7600 66.6666
58.7700 45.8334
58.7800 29.1666
58.7900 58.3334
58.8000 54.1666
58.8100 29.1666
58.8200 66.6666
58.8300 45.8334
58.8400 75.0000
58.8500 45.8334
58.8600 70.8334
58.8700 79.1666
58.8800 70.8334
58.8900 50.0000
58.9000 45.8334
58.9100 45.8334
58.9200 41.6666
58.9300 54.1666
58.9400 45.8334
58.9500 20.8334
58.9600 29.1666
58.9700 58.3334
58.9800 33.3334
58.9900 20.8334
59.0000 33.3334
59.0100 29.1666
59.0200 25.0000
59.0300 16.6666
59.0400 25.0000
59.0500 33.3334
59.0600 12.5000
59.0700 41.6666
59.0800 45.8334
59.0900 33.3334
59.1000 54.1666
59.1100 45.8334
59.1200 12.5000
59.1300 37.5000
59.1400 41.6666
59.1500 41.6666
59.1600 29.1666
59.1700 45.8334
59.1800 29.1666
59.1900 37.5000
59.2000 25.0000
59.2100 33.3334
59.2200 54.1666
59.2300 37.5000
59.2400 45.8334
59.2500 33.3334
59.2600 29.1666
59.2700 62.5000
59.2800 20.8334
59.2900 37.5000
59.3000 33.3334
59.3100 16.6666
59.3200 20.8334
59.3300 25.0000
59.3400 25.0000
59.3500 29.1666
59.3600 25.0000
59.3700 33.3334
59.3800 45.8334
59.3900 41.6666
59.4000 41.6666
59.4100 16.6666
59.4200 29.1666
59.4300 33.3334
59.4400 25.0000
59.4500 33.3334
59.4600 41.6666
59.4700 33.3334
59.4800 20.8334
59.4900 29.1666
59.5000 29.1666
59.5100 25.0000
59.5200 41.6666
59.5300 37.5000
59.5400 29.1666
59.5500 25.0000
59.5600 12.5000
59.5700 25.0000
59.5800 4.1666
59.5900 45.8334
59.6000 37.5000
59.6100 25.0000
59.6200 25.0000
59.6300 45.8334
59.6400 12.5000
59.6500 33.3334
59.6600 45.8334
59.6700 37.5000
59.6800 29.1666
59.6900 29.1666
59.7000 41.6666
59.7100 29.1666
59.7200 29.1666
59.7300 25.0000
59.7400 33.3334
59.7500 25.0000
59.7600 33.3334
59.7700 29.1666
59.7800 16.6666
59.7900 20.8334
59.8000 37.5000
59.8100 50.0000
59.8200 41.6666
59.8300 29.1666
59.8400 25.0000
59.8500 25.0000
59.8600 16.6666
59.8700 29.1666
59.8800 29.1666
59.8900 33.3334
59.9000 20.8334
59.9100 25.0000
59.9200 29.1666
59.9300 29.1666
59.9400 33.3334
59.9500 29.1666
59.9600 16.6666
59.9700 16.6666
59.9800 20.8334
59.9900 33.3334
60.0000 37.5000
60.0100 20.8334
60.0200 20.8334
60.0300 4.1666
60.0400 25.0000
60.0500 25.0000
60.0600 12.5000
60.0700 41.6666
60.0800 25.0000
60.0900 20.8334
60.1000 20.8334
60.1100 41.6666
60.1200 37.5000
60.1300 41.6666
60.1400 29.1666
60.1500 16.6666
60.1600 20.8334
60.1700 54.1666
60.1800 29.1666
60.1900 29.1666
60.2000 33.3334
60.2100 29.1666
60.2200 12.5000
60.2300 33.3334
60.2400 37.5000
60.2500 37.5000
60.2600 29.1666
60.2700 25.0000
60.2800 29.1666
60.2900 20.8334
60.3000 25.0000
60.3100 12.5000
60.3200 29.1666
60.3300 29.1666
60.3400 33.3334
60.3500 29.1666
60.3600 25.0000
60.3700 25.0000
60.3800 25.0000
60.3900 37.5000
60.4000 33.3334
60.4100 25.0000
60.4200 25.0000
60.4300 41.6666
60.4400 29.1666
60.4500 54.1666
60.4600 37.5000
60.4700 25.0000
60.4800 33.3334
60.4900 25.0000
60.5000 33.3334
60.5100 37.5000
60.5200 54.1666
60.5300 37.5000
60.5400 37.5000
60.5500 50.0000
60.5600 33.3334
60.5700 29.1666
60.5800 37.5000
60.5900 37.5000
60.6000 29.1666
60.6100 41.6666
60.6200 37.5000
60.6300 37.5000
60.6400 41.6666
60.6500 25.0000
60.6600 20.8334
60.6700 25.0000
60.6800 41.6666
60.6900 37.5000
60.7000 29.1666
60.7100 41.6666
60.7200 33.3334
60.7300 41.6666
60.7400 20.8334
60.7500 54.1666
60.7600 75.0000
60.7700 45.8334
60.7800 58.3334
60.7900 54.1666
60.8000 58.3334
60.8100 91.6666
60.8200 70.8334
60.8300 45.8334
60.8400 45.8334
60.8500 62.5000
60.8600 50.0000
60.8700 29.1666
60.8800 29.1666
60.8900 29.1666
60.9000 25.0000
60.9100 20.8334
60.9200 37.5000
60.9300 29.1666
60.9400 29.1666
60.9500 41.6666
60.9600 29.1666
60.9700 45.8334
60.9800 29.1666
60.9900 37.5000
61.0000 29.1666
61.0100 37.5000
61.0200 16.6666
61.0300 33.3334
61.0400 25.0000
61.0500 29.1666
61.0600 33.3334
61.0700 50.0000
61.0800 54.1666
61.0900 25.0000
61.1000 45.8334
61.1100 41.6666
61.1200 20.8334
61.1300 41.6666
61.1400 41.6666
61.1500 25.0000
61.1600 16.6666
61.1700 50.0000
61.1800 33.3334
61.1900 37.5000
61.2000 29.1666
61.2100 37.5000
61.2200 45.8334
61.2300 37.5000
61.2400 45.8334
61.2500 70.8334
61.2600 41.6666
61.2700 45.8334
61.2800 41.6666
61.2900 41.6666
61.3000 37.5000
61.3100 50.0000
61.3200 41.6666
61.3300 37.5000
61.3400 29.1666
61.3500 29.1666
61.3600 20.8334
61.3700 25.0000
61.3800 37.5000
61.3900 20.8334
61.4000 33.3334
61.4100 29.1666
61.4200 37.5000
61.4300 33.3334
61.4400 45.8334
61.4500 45.8334
61.4600 37.5000
61.4700 8.3334
61.4800 41.6666
61.4900 41.6666
61.5000 50.0000
61.5100 33.3334
61.5200 25.0000
61.5300 20.8334
61.5400 12.5000
61.5500 25.0000
61.5600 45.8334
61.5700 41.6666
61.5800 50.0000
61.5900 33.3334
61.6000 29.1666
61.6100 37.5000
61.6200 33.3334
61.6300 33.3334
61.6400 50.0000
61.6500 20.8334
61.6600 20.8334
61.6700 25.0000
61.6800 33.3334
61.6900 33.3334
61.7000 20.8334
61.7100 50.0000
61.7200 41.6666
61.7300 25.0000
61.7400 41.6666
61.7500 45.8334
61.7600 45.8334
61.7700 25.0000
61.7800 20.8334
61.7900 25.0000
61.8000 37.5000
61.8100 33.3334
61.8200 20.8334
61.8300 20.8334
61.8400 29.1666
61.8500 37.5000
61.8600 25.0000
61.8700 50.0000
61.8800 29.1666
61.8900 33.3334
61.9000 29.1666
61.9100 45.8334
61.9200 33.3334
61.9300 54.1666
61.9400 45.8334
61.9500 58.3334
61.9600 54.1666
61.9700 29.1666
61.9800 66.6666
61.9900 50.0000
62.0000 45.8334
62.0100 50.0000
62.0200 79.1666
62.0300 70.8334
62.0400 70.8334
62.0500 79.1666
62.0600 112.5000
62.0700 91.6666
62.0800 112.5000
62.0900 116.6666
62.1000 95.8334
62.1100 125.0000
62.1200 175.0000
62.1300 129.1666
62.1400 162.5000
62.1500 129.1666
62.1600 141.6666
62.1700 112.5000
62.1800 150.0000
62.1900 137.5000
62.2000 129.1666
62.2100 91.6666
62.2200 120.8334
62.2300 83.3334
62.2400 62.5000
62.2500 54.1666
62.2600 79.1666
62.2700 50.0000
62.2800 75.0000
62.2900 50.0000
62.3000 91.6666
62.3100 66.6666
62.3200 58.3334
62.3300 70.8334
62.3400 45.8334
62.3500 45.8334
62.3600 79.1666
62.3700 50.0000
62.3800 66.6666
62.3900 45.8334
62.4000 41.6666
62.4100 45.8334
62.4200 66.6666
62.4300 62.5000
62.4400 37.5000
62.4500 62.5000
62.4600 25.0000
62.4700 41.6666
62.4800 45.8334
62.4900 54.1666
62.5000 54.1666
62.5100 66.6666
62.5200 66.6666
62.5300 62.5000
62.5400 79.1666
62.5500 75.0000
62.5600 75.0000
62.5700 58.3334
62.5800 45.8334
62.5900 70.8334
62.6000 62.5000
62.6100 83.3334
62.6200 62.5000
62.6300 62.5000
62.6400 58.3334
62.6500 62.5000
62.6600 37.5000
62.6700 45.8334
62.6800 50.0000
62.6900 58.3334
62.7000 45.8334
62.7100 79.1666
62.7200 54.1666
62.7300 33.3334
62.7400 37.5000
62.7500 50.0000
62.7600 58.3334
62.7700 45.8334
62.7800 54.1666
62.7900 50.0000
62.8000 62.5000
62.8100 75.0000
62.8200 41.6666
62.8300 29.1666
62.8400 37.5000
62.8500 33.3334
62.8600 45.8334
62.8700 70.8334
62.8800 75.0000
62.8900 58.3334
62.9000 87.5000
62.9100 91.6666
62.9200 104.1666
62.9300 108.3334
62.9400 66.6666
62.9500 87.5000
62.9600 58.3334
62.9700 83.3334
62.9800 87.5000
62.9900 58.3334
63.0000 70.8334
63.0100 87.5000
63.0200 91.6666
63.0300 70.8334
63.0400 70.8334
63.0500 50.0000
63.0600 54.1666
63.0700 54.1666
63.0800 66.6666
63.0900 33.3334
63.1000 54.1666
63.1100 41.6666
63.1200 54.1666
63.1300 45.8334
63.1400 79.1666
63.1500 33.3334
63.1600 50.0000
63.1700 54.1666
63.1800 33.3334
63.1900 54.1666
63.2000 37.5000
63.2100 37.5000
63.2200 45.8334
63.2300 41.6666
63.2400 45.8334
63.2500 50.0000
63.2600 45.8334
63.2700 62.5000
63.2800 54.1666
63.2900 41.6666
63.3000 29.1666
63.3100 37.5000
63.3200 33.3334
63.3300 29.1666
63.3400 62.5000
63.3500 75.0000
63.3600 45.8334
63.3700 29.1666
63.3800 37.5000
63.3900 45.8334
63.4000 58.3334
63.4100 33.3334
63.4200 33.3334
63.4300 45.8334
63.4400 37.5000
63.4500 25.0000
63.4600 41.6666
63.4700 58.3334
63.4800 45.8334
63.4900 37.5000
63.5000 37.5000
63.5100 20.8334
63.5200 25.0000
63.5300 33.3334
63.5400 41.6666
63.5500 58.3334
63.5600 37.5000
63.5700 41.6666
63.5800 41.6666
63.5900 45.8334
63.6000 37.5000
63.6100 37.5000
63.6200 58.3334
63.6300 54.1666
63.6400 58.3334
63.6500 50.0000
63.6600 62.5000
63.6700 79.1666
63.6800 87.5000
63.6900 62.5000
63.7000 70.8334
63.7100 87.5000
63.7200 70.8334
63.7300 62.5000
63.7400 70.8334
63.7500 70.8334
63.7600 58.3334
63.7700 45.8334
63.7800 37.5000
63.7900 70.8334
63.8000 37.5000
63.8100 29.1666
63.8200 41.6666
63.8300 25.0000
63.8400 29.1666
63.8500 29.1666
63.8600 45.8334
63.8700 25.0000
63.8800 33.3334
63.8900 41.6666
63.9000 25.0000
63.9100 20.8334
63.9200 33.3334
63.9300 20.8334
63.9400 29.1666
63.9500 20.8334
63.9600 16.6666
63.9700 25.0000
63.9800 50.0000
63.9900 45.8334
64.0000 37.5000
64.0100 12.5000
64.0200 41.6666
64.0300 41.6666
64.0400 62.5000
64.0500 45.8334
64.0600 37.5000
64.0700 16.6666
64.0800 37.5000
64.0900 33.3334
64.1000 16.6666
64.1100 41.6666
64.1200 37.5000
64.1300 33.3334
64.1400 25.0000
64.1500 37.5000
64.1600 41.6666
64.1700 37.5000
64.1800 25.0000
64.1900 37.5000
64.2000 16.6666
64.2100 41.6666
64.2200 33.3334
64.2300 25.0000
64.2400 50.0000
64.2500 41.6666
64.2600 54.1666
64.2700 29.1666
64.2800 33.3334
64.2900 25.0000
64.3000 20.8334
64.3100 29.1666
64.3200 29.1666
64.3300 20.8334
64.3400 29.1666
64.3500 33.3334
64.3600 37.5000
64.3700 50.0000
64.3800 66.6666
64.3900 54.1666
64.4000 58.3334
64.4100 58.3334
64.4200 58.3334
64.4300 50.0000
64.4400 75.0000
64.4500 54.1666
64.4600 54.1666
64.4700 58.3334
64.4800 83.3334
64.4900 50.0000
64.5000 66.6666
64.5100 70.8334
64.5200 87.5000
64.5300 75.0000
64.5400 58.3334
64.5500 91.6666
64.5600 83.3334
64.5700 75.0000
64.5800 91.6666
64.5900 104.1666
64.6000 58.3334
64.6100 87.5000
64.6200 79.1666
64.6300 75.0000
64.6400 95.8334
64.6500 79.1666
64.6600 66.6666
64.6700 58.3334
64.6800 62.5000
64.6900 66.6666
64.7000 45.8334
64.7100 120.8334
64.7200 66.6666
64.7300 75.0000
64.7400 50.0000
64.7500 41.6666
64.7600 50.0000
64.7700 58.3334
64.7800 54.1666
64.7900 58.3334
64.8000 79.1666
64.8100 37.5000
64.8200 62.5000
64.8300 29.1666
64.8400 45.8334
64.8500 45.8334
64.8600 50.0000
64.8700 41.6666
64.8800 79.1666
64.8900 62.5000
64.9000 66.6666
64.9100 83.3334
64.9200 54.1666
64.9300 50.0000
64.9400 54.1666
64.9500 33.3334
64.9600 45.8334
64.9700 37.5000
64.9800 45.8334
64.9900 33.3334
65.0000 45.8334
65.0100 83.3334
65.0200 41.6666
65.0300 62.5000
65.0400 45.8334
65.0500 58.3334
65.0600 70.8334
65.0700 58.3334
65.0800 62.5000
65.0900 70.8334
65.1000 75.0000
65.1100 58.3334
65.1200 54.1666
65.1300 62.5000
65.1400 58.3334
65.1500 66.6666
65.1600 83.3334
65.1700 104.1666
65.1800 95.8334
65.1900 100.0000
65.2000 100.0000
65.2100 83.3334
65.2200 70.8334
65.2300 108.3334
65.2400 112.5000
65.2500 150.0000
65.2600 150.0000
65.2700 208.3334
65.2800 162.5000
65.2900 133.3334
65.3000 191.6666
65.3100 250.0000
65.3200 233.3334
65.3300 212.5000
65.3400 183.3334
65.3500 154.1666
65.3600 145.8334
65.3700 100.0000
65.3800 83.3334
65.3900 125.0000
65.4000 104.1666
65.4100 91.6666
65.4200 116.6666
65.4300 87.5000
65.4400 100.0000
65.4500 87.5000
65.4600 75.0000
65.4700 100.0000
65.4800 70.8334
65.4900 108.3334
65.5000 66.6666
65.5100 58.3334
65.5200 62.5000
65.5300 70.8334
65.5400 62.5000
65.5500 75.0000
65.5600 58.3334
65.5700 58.3334
65.5800 66.6666
65.5900 50.0000
65.6000 50.0000
65.6100 87.5000
65.6200 54.1666
65.6300 25.0000
65.6400 62.5000
65.6500 79.1666
65.6600 95.8334
65.6700 45.8334
65.6800 45.8334
65.6900 45.8334
65.7000 45.8334
65.7100 41.6666
65.7200 45.8334
65.7300 45.8334
65.7400 62.5000
65.7500 54.1666
65.7600 95.8334
65.7700 75.0000
65.7800 62.5000
65.7900 62.5000
65.8000 66.6666
65.8100 45.8334
65.8200 83.3334
65.8300 58.3334
65.8400 50.0000
65.8500 83.3334
65.8600 54.1666
65.8700 58.3334
65.8800 79.1666
65.8900 66.6666
65.9000 50.0000
65.9100 79.1666
65.9200 58.3334
65.9300 45.8334
65.9400 83.3334
65.9500 79.1666
65.9600 58.3334
65.9700 58.3334
65.9800 91.6666
65.9900 104.1666
66.0000 112.5000
66.0100 112.5000
66.0200 145.8334
66.0300 141.6666
66.0400 104.1666
66.0500 141.6666
66.0600 137.5000
66.0700 133.3334
66.0800 120.8334
66.0900 133.3334
66.1000 116.6666
66.1100 150.0000
66.1200 100.0000
66.1300 116.6666
66.1400 116.6666
66.1500 125.0000
66.1600 87.5000
66.1700 75.0000
66.1800 95.8334
66.1900 54.1666
66.2000 75.0000
66.2100 100.0000
66.2200 83.3334
66.2300 62.5000
66.2400 45.8334
66.2500 66.6666
66.2600 54.1666
66.2700 37.5000
66.2800 75.0000
66.2900 75.0000
66.3000 50.0000
66.3100 58.3334
66.3200 108.3334
66.3300 58.3334
66.3400 66.6666
66.3500 87.5000
66.3600 58.3334
66.3700 58.3334
66.3800 62.5000
66.3900 79.1666
66.4000 75.0000
66.4100 62.5000
66.4200 83.3334
66.4300 54.1666
66.4400 66.6666
66.4500 54.1666
66.4600 54.1666
66.4700 75.0000
66.4800 91.6666
66.4900 87.5000
66.5000 41.6666
66.5100 87.5000
66.5200 87.5000
66.5300 87.5000
66.5400 58.3334
66.5500 83.3334
66.5600 75.0000
66.5700 108.3334
66.5800 108.3334
66.5900 95.8334
66.6000 75.0000
66.6100 83.3334
66.6200 83.3334
66.6300 87.5000
66.6400 145.8334
66.6500 125.0000
66.6600 112.5000
66.6700 125.0000
66.6800 133.3334
66.6900 170.8334
66.7000 137.5000
66.7100 175.0000
66.7200 183.3334
66.7300 208.3334
66.7400 216.6666
66.7500 312.5000
66.7600 287.5000
66.7700 316.6666
66.7800 391.6666
66.7900 437.5000
66.8000 437.5000
66.8100 550.0000
66.8200 637.5000
66.8300 704.1666
66.8400 658.3334
66.8500 812.5000
66.8600 741.6666
66.8700 829.1666
66.8800 733.3334
66.8900 620.8334
66.9000 704.1666
66.9100 612.5000
66.9200 483.3334
66.9300 487.5000
66.9400 437.5000
66.9500 400.0000
66.9600 408.3334
66.9700 291.6666
66.9800 300.0000
66.9900 270.8334
67.0000 337.5000
67.0100 270.8334
67.0200 287.5000
67.0300 295.8334
67.0400 283.3334
67.0500 316.6666
67.0600 233.3334
67.0700 333.3334
67.0800 258.3334
67.0900 283.3334
67.1000 258.3334
67.1100 237.5000
67.1200 212.5000
67.1300 245.8334
67.1400 200.0000
67.1500 200.0000
67.1600 200.0000
67.1700 216.6666
67.1800 145.8334
67.1900 204.1666
67.2000 175.0000
67.2100 229.1666
67.2200 133.3334
67.2300 166.6666
67.2400 158.3334
67.2500 137.5000
67.2600 116.6666
67.2700 116.6666
67.2800 116.6666
67.2900 83.3334
67.3000 133.3334
67.3100 79.1666
67.3200 87.5000
67.3300 112.5000
67.3400 120.8334
67.3500 54.1666
67.3600 41.6666
67.3700 95.8334
67.3800 83.3334
67.3900 58.3334
67.4000 75.0000
67.4100 70.8334
67.4200 91.6666
67.4300 125.0000
67.4400 83.3334
67.4500 83.3334
67.4600 104.1666
67.4700 112.5000
67.4800 108.3334
67.4900 116.6666
67.5000 104.1666
67.5100 129.1666
67.5200 129.1666
67.5300 116.6666
67.5400 154.1666
67.5500 170.8334
67.5600 133.3334
67.5700 141.6666
67.5800 125.0000
67.5900 137.5000
67.6000 125.0000
67.6100 179.1666
67.6200 183.3334
67.6300 141.6666
67.6400 116.6666
67.6500 145.8334
67.6600 129.1666
67.6700 116.6666
67.6800 66.6666
67.6900 95.8334
67.7000 112.5000
67.7100 95.8334
67.7200 87.5000
67.7300 58.3334
67.7400 62.5000
67.7500 50.0000
67.7600 66.6666
67.7700 50.0000
67.7800 50.0000
67.7900 58.3334
67.8000 25.0000
67.8100 37.5000
67.8200 41.6666
67.8300 20.8334
67.8400 75.0000
67.8500 70.8334
67.8600 50.0000
67.8700 20.8334
67.8800 29.1666
67.8900 45.8334
67.9000 41.6666
67.9100 58.3334
67.9200 45.8334
67.9300 54.1666
67.9400 50.0000
67.9500 25.0000
67.9600 45.8334
67.9700 41.6666
67.9800 58.3334
67.9900 37.5000
68.0000 37.5000
68.0100 29.1666
68.0200 62.5000
68.0300 33.3334
68.0400 33.3334
68.0500 37.5000
68.0600 25.0000
68.0700 50.0000
68.0800 58.3334
68.0900 62.5000
68.1000 41.6666
68.1100 79.1666
68.1200 62.5000
68.1300 87.5000
68.1400 75.0000
68.1500 62.5000
68.1600 87.5000
68.1700 104.1666
68.1800 95.8334
68.1900 125.0000
68.2000 75.0000
68.2100 83.3334
68.2200 91.6666
68.2300 66.6666
68.2400 54.1666
68.2500 70.8334
68.2600 112.5000
68.2700 79.1666
68.2800 54.1666
68.2900 54.1666
68.3000 62.5000
68.3100 70.8334
68.3200 91.6666
68.3300 120.8334
68.3400 104.1666
68.3500 87.5000
68.3600 70.8334
68.3700 108.3334
68.3800 70.8334
68.3900 62.5000
68.4000 100.0000
68.4100 87.5000
68.4200 83.3334
68.4300 66.6666
68.4400 87.5000
68.4500 58.3334
68.4600 70.8334
68.4700 70.8334
68.4800 50.0000
68.4900 87.5000
68.5000 75.0000
68.5100 66.6666
68.5200 50.0000
68.5300 66.6666
68.5400 70.8334
68.5500 58.3334
68.5600 75.0000
68.5700 50.0000
68.5800 75.0000
68.5900 66.6666
68.6000 66.6666
68.6100 58.3334
68.6200 75.0000
68.6300 50.0000
68.6400 37.5000
68.6500 100.0000
68.6600 91.6666
68.6700 54.1666
68.6800 66.6666
68.6900 104.1666
68.7000 75.0000
68.7100 54.1666
68.7200 66.6666
68.7300 91.6666
68.7400 66.6666
68.7500 83.3334
68.7600 79.1666
68.7700 83.3334
68.7800 50.0000
68.7900 70.8334
68.8000 45.8334
68.8100 50.0000
68.8200 75.0000
68.8300 75.0000
68.8400 62.5000
68.8500 58.3334
68.8600 62.5000
68.8700 58.3334
68.8800 41.6666
68.8900 58.3334
68.9000 58.3334
68.9100 54.1666
68.9200 70.8334
68.9300 70.8334
68.9400 66.6666
68.9500 50.0000
68.9600 66.6666
68.9700 66.6666
68.9800 37.5000
68.9900 62.5000
69.0000 83.3334
69.0100 66.6666
69.0200 62.5000
69.0300 62.5000
69.0400 66.6666
69.0500 95.8334
69.0600 58.3334
69.0700 50.0000
69.0800 50.0000
69.0900 75.0000
69.1000 125.0000
69.1100 50.0000
69.1200 104.1666
69.1300 129.1666
69.1400 120.8334
69.1500 108.3334
69.1600 87.5000
69.1700 133.3334
69.1800 104.1666
69.1900 87.5000
69.2000 108.3334
69.2100 95.8334
69.2200 95.8334
69.2300 79.1666
69.2400 91.6666
69.2500 83.3334
69.2600 50.0000
69.2700 66.6666
69.2800 70.8334
69.2900 62.5000
69.3000 50.0000
69.3100 50.0000
69.3200 70.8334
69.3300 41.6666
69.3400 54.1666
69.3500 45.8334
69.3600 58.3334
69.3700 41.6666
69.3800 33.3334
69.3900 50.0000
69.4000 45.8334
69.4100 62.5000
69.4200 45.8334
69.4300 41.6666
69.4400 50.0000
69.4500 33.3334
69.4600 62.5000
69.4700 50.0000
69.4800 37.5000
69.4900 50.0000
69.5000 62.5000
69.5100 41.6666
69.5200 50.0000
69.5300 41.6666
69.5400 50.0000
69.5500 66.6666
69.5600 58.3334
69.5700 45.8334
69.5800 62.5000
69.5900 41.6666
69.6000 50.0000
69.6100 41.6666
69.6200 37.5000
69.6300 50.0000
69.6400 45.8334
69.6500 66.6666
69.6600 58.3334
69.6700 70.8334
69.6800 70.8334
69.6900 58.3334
69.7000 50.0000
69.7100 70.8334
69.7200 41.6666
69.7300 29.1666
69.7400 41.6666
69.7500 62.5000
69.7600 62.5000
69.7700 87.5000
69.7800 45.8334
69.7900 62.5000
69.8000 83.3334
69.8100 70.8334
69.8200 62.5000
69.8300 79.1666
69.8400 91.6666
69.8500 66.6666
69.8600 100.0000
69.8700 95.8334
69.8800 70.8334
69.8900 87.5000
69.9000 125.0000
69.9100 137.5000
69.9200 129.1666
69.9300 108.3334
69.9400 87.5000
69.9500 87.5000
69.9600 100.0000
69.9700 79.1666
69.9800 70.8334
69.9900 79.1666
70.0000 70.8334
70.0100 54.1666
70.0200 50.0000
70.0300 66.6666
70.0400 66.6666
70.0500 50.0000
70.0600 75.0000
70.0700 75.0000
70.0800 75.0000
70.0900 83.3334
70.1000 66.6666
70.1100 50.0000
70.1200 79.1666
70.1300 58.3334
70.1400 62.5000
70.1500 70.8334
70.1600 37.5000
70.1700 62.5000
70.1800 62.5000
70.1900 58.3334
70.2000 108.3334
70.2100 95.8334
70.2200 66.6666
70.2300 70.8334
70.2400 70.8334
70.2500 54.1666
70.2600 79.1666
70.2700 45.8334
70.2800 70.8334
70.2900 79.1666
70.3000 62.5000
70.3100 37.5000
70.3200 70.8334
70.3300 91.6666
70.3400 62.5000
70.3500 91.6666
70.3600 83.3334
70.3700 58.3334
70.3800 79.1666
70.3900 91.6666
70.4000 79.1666
70.4100 83.3334
70.4200 104.1666
70.4300 79.1666
70.4400 87.5000
70.4500 116.6666
70.4600 137.5000
70.4700 112.5000
70.4800 108.3334
70.4900 91.6666
70.5000 95.8334
70.5100 133.3334
70.5200 112.5000
70.5300 150.0000
70.5400 125.0000
70.5500 175.0000
70.5600 145.8334
70.5700 158.3334
70.5800 129.1666
70.5900 125.0000
70.6000 179.1666
70.6100 133.3334
70.6200 129.1666
70.6300 158.3334
70.6400 145.8334
70.6500 200.0000
70.6600 175.0000
70.6700 191.6666
70.6800 195.8334
70.6900 141.6666
70.7000 137.5000
70.7100 137.5000
70.7200 112.5000
70.7300 150.0000
70.7400 95.8334
70.7500 91.6666
70.7600 79.1666
70.7700 104.1666
70.7800 91.6666
70.7900 95.8334
70.8000 120.8334
70.8100 75.0000
70.8200 75.0000
70.8300 100.0000
70.8400 91.6666
70.8500 83.3334
70.8600 75.0000
70.8700 75.0000
70.8800 108.3334
70.8900 54.1666
70.9000 108.3334
70.9100 100.0000
70.9200 62.5000
70.9300 104.1666
70.9400 58.3334
70.9500 75.0000
70.9600 104.1666
70.9700 87.5000
70.9800 58.3334
70.9900 95.8334
71.0000 95.8334
71.0100 70.8334
71.0200 83.3334
71.0300 75.0000
71.0400 91.6666
71.0500 120.8334
71.0600 91.6666
71.0700 95.8334
71.0800 83.3334
71.0900 95.8334
71.1000 87.5000
71.1100 79.1666
71.1200 95.8334
71.1300 112.5000
71.1400 108.3334
71.1500 91.6666
71.1600 83.3334
71.1700 100.0000
71.1800 112.5000
71.1900 120.8334
71.2000 162.5000
71.2100 108.3334
71.2200 170.8334
71.2300 141.6666
71.2400 154.1666
71.2500 162.5000
71.2600 183.3334
71.2700 183.3334
71.2800 162.5000
71.2900 200.0000
71.3000 204.1666
71.3100 237.5000
71.3200 275.0000
71.3300 258.3334
71.3400 308.3334
71.3500 354.1666
71.3600 395.8334
71.3700 416.6666
71.3800 516.6666
71.3900 625.0000
71.4000 637.5000
71.4100 550.0000
71.4200 679.1666
71.4300 716.6666
71.4400 716.6666
71.4500 625.0000
71.4600 604.1666
71.4700 533.3334
71.4800 462.5000
71.4900 400.0000
71.5000 370.8334
71.5100 237.5000
71.5200 241.6666
71.5300 287.5000
71.5400 245.8334
71.5500 233.3334
71.5600 204.1666
71.5700 162.5000
71.5800 108.3334
71.5900 145.8334
71.6000 137.5000
71.6100 120.8334
71.6200 116.6666
71.6300 137.5000
71.6400 87.5000
71.6500 125.0000
71.6600 108.3334
71.6700 95.8334
71.6800 133.3334
71.6900 108.3334
71.7000 108.3334
71.7100 104.1666
71.7200 141.6666
71.7300 133.3334
71.7400 133.3334
71.7500 112.5000
71.7600 166.6666
71.7700 133.3334
71.7800 158.3334
71.7900 154.1666
71.8000 87.5000
71.8100 104.1666
71.8200 120.8334
71.8300 112.5000
71.8400 108.3334
71.8500 91.6666
71.8600 58.3334
71.8700 70.8334
71.8800 104.1666
71.8900 108.3334
71.9000 108.3334
71.9100 66.6666
71.9200 83.3334
71.9300 70.8334
71.9400 91.6666
71.9500 129.1666
71.9600 66.6666
71.9700 83.3334
71.9800 58.3334
71.9900 62.5000
72.0000 62.5000
72.0100 62.5000
72.0200 50.0000
72.0300 95.8334
72.0400 91.6666
72.0500 75.0000
72.0600 58.3334
72.0700 62.5000
72.0800 79.1666
72.0900 33.3334
72.1000 62.5000
72.1100 83.3334
72.1200 75.0000
72.1300 75.0000
72.1400 54.1666
72.1500 70.8334
72.1600 66.6666
72.1700 58.3334
72.1800 50.0000
72.1900 54.1666
72.2000 70.8334
72.2100 66.6666
72.2200 75.0000
72.2300 58.3334
72.2400 41.6666
72.2500 29.1666
72.2600 45.8334
72.2700 54.1666
72.2800 33.3334
72.2900 50.0000
72.3000 54.1666
72.3100 33.3334
72.3200 66.6666
72.3300 54.1666
72.3400 79.1666
72.3500 54.1666
72.3600 58.3334
72.3700 45.8334
72.3800 75.0000
72.3900 54.1666
72.4000 79.1666
72.4100 54.1666
72.4200 45.8334
72.4300 58.3334
72.4400 41.6666
72.4500 70.8334
72.4600 58.3334
72.4700 62.5000
72.4800 75.0000
72.4900 50.0000
72.5000 62.5000
72.5100 58.3334
72.5200 62.5000
72.5300 58.3334
72.5400 54.1666
72.5500 50.0000
72.5600 41.6666
72.5700 41.6666
72.5800 45.8334
72.5900 54.1666
72.6000 62.5000
72.6100 87.5000
72.6200 66.6666
72.6300 66.6666
72.6400 95.8334
72.6500 79.1666
72.6600 45.8334
72.6700 87.5000
72.6800 95.8334
72.6900 62.5000
72.7000 79.1666
72.7100 66.6666
72.7200 95.8334
72.7300 66.6666
72.7400 100.0000
72.7500 95.8334
72.7600 104.1666
72.7700 79.1666
72.7800 95.8334
72.7900 79.1666
72.8000 141.6666
72.8100 208.3334
72.8200 191.6666
72.8300 191.6666
72.8400 200.0000
72.8500 212.5000
72.8600 212.5000
72.8700 250.0000
72.8800 250.0000
72.8900 237.5000
72.9000 229.1666
72.9100 254.1666
72.9200 316.6666
72.9300 283.3334
72.9400 287.5000
72.9500 254.1666
72.9600 237.5000
72.9700 262.5000
72.9800 212.5000
72.9900 166.6666
73.0000 133.3334
73.0100 162.5000
73.0200 150.0000
73.0300 150.0000
73.0400 108.3334
73.0500 116.6666
73.0600 79.1666
73.0700 87.5000
73.0800 104.1666
73.0900 129.1666
73.1000 112.5000
73.1100 112.5000
73.1200 133.3334
73.1300 91.6666
73.1400 104.1666
73.1500 83.3334
73.1600 104.1666
73.1700 112.5000
73.1800 95.8334
73.1900 91.6666
73.2000 66.6666
73.2100 87.5000
73.2200 100.0000
73.2300 108.3334
73.2400 116.6666
73.2500 62.5000
73.2600 104.1666
73.2700 79.1666
73.2800 108.3334
73.2900 104.1666
73.3000 141.6666
73.3100 129.1666
73.3200 104.1666
73.3300 125.0000
73.3400 141.6666
73.3500 150.0000
73.3600 116.6666
73.3700 66.6666
73.3800 95.8334
73.3900 129.1666
73.4000 170.8334
73.4100 83.3334
73.4200 112.5000
73.4300 137.5000
73.4400 112.5000
73.4500 116.6666
73.4600 129.1666
73.4700 116.6666
73.4800 133.3334
73.4900 116.6666
73.5000 112.5000
73.5100 120.8334
73.5200 125.0000
73.5300 137.5000
73.5400 116.6666
73.5500 137.5000
73.5600 183.3334
73.5700 137.5000
73.5800 120.8334
73.5900 158.3334
73.6000 158.3334
73.6100 125.0000
73.6200 145.8334
73.6300 154.1666
73.6400 162.5000
73.6500 170.8334
73.6600 162.5000
73.6700 187.5000
73.6800 175.0000
73.6900 158.3334
73.7000 158.3334
73.7100 150.0000
73.7200 120.8334
73.7300 120.8334
73.7400 120.8334
73.7500 112.5000
73.7600 87.5000
73.7700 95.8334
73.7800 108.3334
73.7900 79.1666
73.8000 91.6666
73.8100 104.1666
73.8200 79.1666
73.8300 83.3334
73.8400 87.5000
73.8500 95.8334
73.8600 79.1666
73.8700 91.6666
73.8800 104.1666
73.8900 83.3334
73.9000 62.5000
73.9100 91.6666
73.9200 87.5000
73.9300 83.3334
73.9400 75.0000
73.9500 83.3334
73.9600 91.6666
73.9700 87.5000
73.9800 62.5000
73.9900 66.6666
74.0000 87.5000
74.0100 54.1666
74.0200 87.5000
74.0300 91.6666
74.0400 62.5000
74.0500 58.3334
74.0600 83.3334
74.0700 100.0000
74.0800 104.1666
74.0900 87.5000
74.1000 79.1666
74.1100 79.1666
74.1200 100.0000
74.1300 70.8334
74.1400 75.0000
74.1500 79.1666
74.1600 108.3334
74.1700 87.5000
74.1800 83.3334
74.1900 87.5000
74.2000 54.1666
74.2100 54.1666
74.2200 75.0000
74.2300 120.8334
74.2400 83.3334
74.2500 133.3334
74.2600 129.1666
74.2700 108.3334
74.2800 137.5000
74.2900 141.6666
74.3000 154.1666
74.3100 166.6666
74.3200 204.1666
74.3300 191.6666
74.3400 229.1666
74.3500 325.0000
74.3600 250.0000
74.3700 262.5000
74.3800 283.3334
74.3900 258.3334
74.4000 312.5000
74.4100 325.0000
74.4200 320.8334
74.4300 287.5000
74.4400 254.1666
74.4500 204.1666
74.4600 262.5000
74.4700 204.1666
74.4800 204.1666
74.4900 175.0000
74.5000 175.0000
74.5100 191.6666
74.5200 125.0000
74.5300 150.0000
74.5400 108.3334
74.5500 150.0000
74.5600 120.8334
74.5700 91.6666
74.5800 79.1666
74.5900 87.5000
74.6000 91.6666
74.6100 83.3334
74.6200 91.6666
74.6300 87.5000
74.6400 75.0000
74.6500 100.0000
74.6600 54.1666
74.6700 50.0000
74.6800 54.1666
74.6900 58.3334
74.7000 70.8334
74.7100 66.6666
74.7200 79.1666
74.7300 58.3334
74.7400 54.1666
74.7500 70.8334
74.7600 45.8334
74.7700 62.5000
74.7800 70.8334
74.7900 83.3334
74.8000 58.3334
74.8100 45.8334
74.8200 75.0000
74.8300 66.6666
74.8400 62.5000
74.8500 54.1666
74.8600 58.3334
74.8700 79.1666
74.8800 37.5000
74.8900 37.5000
74.9000 25.0000
74.9100 54.1666
74.9200 70.8334
74.9300 79.1666
74.9400 54.1666
74.9500 79.1666
74.9600 37.5000
74.9700 58.3334
74.9800 70.8334
74.9900 75.0000
75.0000 37.5000
75.0100 70.8334
75.0200 33.3334
75.0300 50.0000
75.0400 54.1666
75.0500 62.5000
75.0600 41.6666
75.0700 45.8334
75.0800 58.3334
75.0900 33.3334
75.1000 45.8334
75.1100 37.5000
75.1200 50.0000
75.1300 50.0000
75.1400 33.3334
75.1500 50.0000
75.1600 37.5000
75.1700 37.5000
75.1800 54.1666
75.1900 62.5000
75.2000 45.8334
75.2100 50.0000
75.2200 50.0000
75.2300 29.1666
75.2400 50.0000
75.2500 37.5000
75.2600 20.8334
75.2700 58.3334
75.2800 54.1666
75.2900 79.1666
75.3000 41.6666
75.3100 45.8334
75.3200 25.0000
75.3300 45.8334
75.3400 41.6666
75.3500 50.0000
75.3600 33.3334
75.3700 54.1666
75.3800 58.3334
75.3900 54.1666
75.4000 33.3334
75.4100 37.5000
75.4200 45.8334
75.4300 29.1666
75.4400 54.1666
75.4500 54.1666
75.4600 25.0000
75.4700 50.0000
75.4800 70.8334
75.4900 37.5000
75.5000 20.8334
75.5100 33.3334
75.5200 33.3334
75.5300 41.6666
75.5400 62.5000
75.5500 41.6666
75.5600 41.6666
75.5700 70.8334
75.5800 79.1666
75.5900 66.6666
75.6000 66.6666
75.6100 41.6666
75.6200 45.8334
75.6300 16.6666
75.6400 50.0000
75.6500 50.0000
75.6600 58.3334
75.6700 87.5000
75.6800 50.0000
75.6900 45.8334
75.7000 62.5000
75.7100 95.8334
75.7200 70.8334
75.7300 70.8334
75.7400 79.1666
75.7500 66.6666
75.7600 58.3334
75.7700 70.8334
75.7800 100.0000
75.7900 91.6666
75.8000 133.3334
75.8100 137.5000
75.8200 120.8334
75.8300 137.5000
75.8400 154.1666
75.8500 158.3334
75.8600 112.5000
75.8700 162.5000
75.8800 141.6666
75.8900 200.0000
75.9000 166.6666
75.9100 133.3334
75.9200 166.6666
75.9300 83.3334
75.9400 116.6666
75.9500 87.5000
75.9600 87.5000
75.9700 87.5000
75.9800 62.5000
75.9900 87.5000
76.0000 58.3334
76.0100 91.6666
76.0200 70.8334
76.0300 108.3334
76.0400 79.1666
76.0500 37.5000
76.0600 41.6666
76.0700 83.3334
76.0800 54.1666
76.0900 29.1666
76.1000 75.0000
76.1100 66.6666
76.1200 62.5000
76.1300 37.5000
76.1400 37.5000
76.1500 41.6666
76.1600 41.6666
76.1700 50.0000
76.1800 50.0000
76.1900 54.1666
76.2000 66.6666
76.2100 66.6666
76.2200 58.3334
76.2300 62.5000
76.2400 29.1666
76.2500 41.6666
76.2600 45.8334
76.2700 41.6666
76.2800 37.5000
76.2900 37.5000
76.3000 25.0000
76.3100 41.6666
76.3200 58.3334
76.3300 37.5000
76.3400 33.3334
76.3500 45.8334
76.3600 50.0000
76.3700 62.5000
76.3800 50.0000
76.3900 25.0000
76.4000 29.1666
76.4100 33.3334
76.4200 58.3334
76.4300 41.6666
76.4400 58.3334
76.4500 66.6666
76.4600 45.8334
76.4700 37.5000
76.4800 58.3334
76.4900 45.8334
76.5000 58.3334
76.5100 50.0000
76.5200 58.3334
76.5300 66.6666
76.5400 45.8334
76.5500 95.8334
76.5600 66.6666
76.5700 45.8334
76.5800 37.5000
76.5900 62.5000
76.6000 37.5000
76.6100 33.3334
76.6200 58.3334
76.6300 37.5000
76.6400 37.5000
76.6500 50.0000
76.6600 41.6666
76.6700 29.1666
76.6800 41.6666
76.6900 41.6666
76.7000 29.1666
76.7100 33.3334
76.7200 54.1666
76.7300 54.1666
76.7400 58.3334
76.7500 58.3334
76.7600 45.8334
76.7700 29.1666
76.7800 45.8334
76.7900 45.8334
76.8000 58.3334
76.8100 50.0000
76.8200 33.3334
76.8300 41.6666
76.8400 54.1666
76.8500 45.8334
76.8600 75.0000
76.8700 45.8334
76.8800 45.8334
76.8900 37.5000
76.9000 37.5000
76.9100 41.6666
76.9200 41.6666
76.9300 37.5000
76.9400 29.1666
76.9500 25.0000
76.9600 37.5000
76.9700 33.3334
76.9800 41.6666
76.9900 50.0000
77.0000 41.6666
77.0100 50.0000
77.0200 75.0000
77.0300 37.5000
77.0400 58.3334
77.0500 54.1666
77.0600 29.1666
77.0700 45.8334
77.0800 45.8334
77.0900 33.3334
77.1000 66.6666
77.1100 66.6666
77.1200 79.1666
77.1300 54.1666
77.1400 70.8334
77.1500 54.1666
77.1600 66.6666
77.1700 58.3334
77.1800 70.8334
77.1900 62.5000
77.2000 62.5000
77.2100 70.8334
77.2200 70.8334
77.2300 45.8334
77.2400 104.1666
77.2500 70.8334
77.2600 87.5000
77.2700 108.3334
77.2800 83.3334
77.2900 108.3334
77.3000 104.1666
77.3100 112.5000
77.3200 162.5000
77.3300 145.8334
77.3400 133.3334
77.3500 133.3334
77.3600 108.3334
77.3700 108.3334
77.3800 70.8334
77.3900 70.8334
77.4000 87.5000
77.4100 100.0000
77.4200 62.5000
77.4300 104.1666
77.4400 87.5000
77.4500 29.1666
77.4600 54.1666
77.4700 58.3334
77.4800 41.6666
77.4900 50.0000
77.5000 75.0000
77.5100 54.1666
77.5200 70.8334
77.5300 70.8334
77.5400 83.3334
77.5500 54.1666
77.5600 54.1666
77.5700 58.3334
77.5800 41.6666
77.5900 95.8334
77.6000 54.1666
77.6100 54.1666
77.6200 58.3334
77.6300 58.3334
77.6400 41.6666
77.6500 62.5000
77.6600 66.6666
77.6700 41.6666
77.6800 37.5000
77.6900 58.3334
77.7000 58.3334
77.7100 75.0000
77.7200 29.1666
77.7300 70.8334
77.7400 25.0000
77.7500 45.8334
77.7600 75.0000
77.7700 50.0000
77.7800 29.1666
77.7900 33.3334
77.8000 37.5000
77.8100 33.3334
77.8200 45.8334
77.8300 66.6666
77.8400 50.0000
77.8500 37.5000
77.8600 29.1666
77.8700 62.5000
77.8800 54.1666
77.8900 33.3334
77.9000 41.6666
77.9100 41.6666
77.9200 54.1666
77.9300 70.8334
77.9400 50.0000
77.9500 25.0000
77.9600 62.5000
77.9700 41.6666
77.9800 37.5000
77.9900 41.6666
78.0000 54.1666
78.0100 41.6666
78.0200 45.8334
78.0300 50.0000
78.0400 62.5000
78.0500 37.5000
78.0600 41.6666
78.0700 54.1666
78.0800 37.5000
78.0900 58.3334
78.1000 58.3334
78.1100 58.3334
78.1200 37.5000
78.1300 66.6666
78.1400 50.0000
78.1500 37.5000
78.1600 75.0000
78.1700 41.6666
78.1800 41.6666
78.1900 62.5000
78.2000 66.6666
78.2100 83.3334
78.2200 54.1666
78.2300 54.1666
78.2400 29.1666
78.2500 58.3334
78.2600 62.5000
78.2700 33.3334
78.2800 66.6666
78.2900 45.8334
78.3000 79.1666
78.3100 70.8334
78.3200 45.8334
78.3300 70.8334
78.3400 62.5000
78.3500 45.8334
78.3600 58.3334
78.3700 41.6666
78.3800 41.6666
78.3900 45.8334
78.4000 50.0000
78.4100 41.6666
78.4200 50.0000
78.4300 20.8334
78.4400 37.5000
78.4500 62.5000
78.4600 58.3334
78.4700 54.1666
78.4800 41.6666
78.4900 50.0000
78.5000 45.8334
78.5100 54.1666
78.5200 41.6666
78.5300 58.3334
78.5400 54.1666
78.5500 45.8334
78.5600 33.3334
78.5700 41.6666
78.5800 33.3334
78.5900 58.3334
78.6000 41.6666
78.6100 50.0000
78.6200 62.5000
78.6300 58.3334
78.6400 66.6666
78.6500 66.6666
78.6600 41.6666
78.6700 45.8334
78.6800 58.3334
78.6900 58.3334
78.7000 70.8334
78.7100 70.8334
78.7200 75.0000
78.7300 70.8334
78.7400 75.0000
78.7500 79.1666
78.7600 83.3334
78.7700 120.8334
78.7800 95.8334
78.7900 87.5000
78.8000 79.1666
78.8100 91.6666
78.8200 87.5000
78.8300 87.5000
78.8400 87.5000
78.8500 54.1666
78.8600 75.0000
78.8700 66.6666
78.8800 91.6666
78.8900 33.3334
78.9000 54.1666
78.9100 50.0000
78.9200 37.5000
78.9300 54.1666
78.9400 41.6666
78.9500 33.3334
78.9600 41.6666
78.9700 37.5000
78.9800 62.5000
78.9900 58.3334
79.0000 33.3334
79.0100 58.3334
79.0200 54.1666
79.0300 54.1666
79.0400 45.8334
79.0500 50.0000
79.0600 54.1666
79.0700 54.1666
79.0800 37.5000
79.0900 50.0000
79.1000 41.6666
79.1100 54.1666
79.1200 54.1666
79.1300 45.8334
79.1400 45.8334
79.1500 70.8334
79.1600 50.0000
79.1700 54.1666
79.1800 45.8334
79.1900 66.6666
79.2000 70.8334
79.2100 50.0000
79.2200 54.1666
79.2300 33.3334
79.2400 62.5000
79.2500 37.5000
79.2600 83.3334
79.2700 58.3334
79.2800 20.8334
79.2900 50.0000
79.3000 58.3334
79.3100 70.8334
79.3200 62.5000
79.3300 54.1666
79.3400 45.8334
79.3500 58.3334
79.3600 54.1666
79.3700 45.8334
79.3800 62.5000
79.3900 62.5000
79.4000 33.3334
79.4100 75.0000
79.4200 54.1666
79.4300 66.6666
79.4400 70.8334
79.4500 100.0000
79.4600 104.1666
79.4700 100.0000
79.4800 79.1666
79.4900 66.6666
79.5000 112.5000
79.5100 87.5000
79.5200 120.8334
79.5300 129.1666
79.5400 125.0000
79.5500 100.0000
79.5600 104.1666
79.5700 79.1666
79.5800 58.3334
79.5900 62.5000
79.6000 83.3334
79.6100 54.1666
79.6200 50.0000
79.6300 66.6666
79.6400 33.3334
79.6500 50.0000
79.6600 45.8334
79.6700 75.0000
79.6800 54.1666
79.6900 50.0000
79.7000 41.6666
79.7100 45.8334
79.7200 58.3334
79.7300 66.6666
79.7400 45.8334
79.7500 33.3334
79.7600 50.0000
79.7700 37.5000
79.7800 41.6666
79.7900 45.8334
79.8000 66.6666
79.8100 83.3334
79.8200 50.0000
79.8300 66.6666
79.8400 62.5000
79.8500 87.5000
79.8600 54.1666
79.8700 54.1666
79.8800 37.5000
79.8900 66.6666
79.9000 41.6666
79.9100 58.3334
79.9200 50.0000
79.9300 70.8334
79.9400 66.6666
79.9500 70.8334
79.9600 45.8334
79.9700 58.3334
79.9800 75.0000
79.9900 62.5000
80.0000 75.0000
80.0100 66.6666
80.0200 70.8334
80.0300 66.6666
80.0400 58.3334
80.0500 95.8334
80.0600 45.8334
80.0700 45.8334
80.0800 62.5000
80.0900 58.3334
80.1000 58.3334
80.1100 58.3334
80.1200 58.3334
80.1300 83.3334
80.1400 50.0000
80.1500 95.8334
80.1600 108.3334
80.1700 129.1666
80.1800 116.6666
80.1900 108.3334
80.2000 108.3334
80.2100 116.6666
80.2200 170.8334
80.2300 175.0000
80.2400 133.3334
80.2500 120.8334
80.2600 120.8334
80.2700 108.3334
80.2800 129.1666
80.2900 116.6666
80.3000 125.0000
80.3100 83.3334
80.3200 108.3334
80.3300 83.3334
80.3400 83.3334
80.3500 75.0000
80.3600 66.6666
80.3700 91.6666
80.3800 87.5000
80.3900 70.8334
80.4000 91.6666
80.4100 83.3334
80.4200 91.6666
80.4300 66.6666
80.4400 70.8334
80.4500 87.5000
80.4600 66.6666
80.4700 104.1666
80.4800 112.5000
80.4900 70.8334
80.5000 70.8334
80.5100 83.3334
80.5200 91.6666
80.5300 112.5000
80.5400 83.3334
80.5500 79.1666
80.5600 108.3334
80.5700 112.5000
80.5800 87.5000
80.5900 120.8334
80.6000 150.0000
80.6100 125.0000
80.6200 141.6666
80.6300 137.5000
80.6400 145.8334
80.6500 154.1666
80.6600 183.3334
80.6700 166.6666
80.6800 179.1666
80.6900 254.1666
80.7000 179.1666
80.7100 154.1666
80.7200 175.0000
80.7300 216.6666
80.7400 154.1666
80.7500 170.8334
80.7600 200.0000
80.7700 195.8334
80.7800 208.3334
80.7900 195.8334
80.8000 175.0000
80.8100 191.6666
80.8200 220.8334
80.8300 241.6666
80.8400 250.0000
80.8500 266.6666
80.8600 287.5000
80.8700 237.5000
80.8800 237.5000
80.8900 212.5000
80.9000 291.6666
80.9100 245.8334
80.9200 191.6666
80.9300 237.5000
80.9400 304.1666
80.9500 208.3334
80.9600 295.8334
80.9700 279.1666
80.9800 225.0000
80.9900 237.5000
81.0000 195.8334
81.0100 183.3334
81.0200 212.5000
81.0300 133.3334
81.0400 170.8334
81.0500 187.5000
81.0600 120.8334
81.0700 116.6666
81.0800 104.1666
81.0900 91.6666
81.1000 100.0000
81.1100 112.5000
81.1200 162.5000
81.1300 91.6666
81.1400 91.6666
81.1500 91.6666
81.1600 66.6666
81.1700 87.5000
81.1800 79.1666
81.1900 45.8334
81.2000 75.0000
81.2100 75.0000
81.2200 108.3334
81.2300 58.3334
81.2400 58.3334
81.2500 75.0000
81.2600 50.0000
81.2700 75.0000
81.2800 91.6666
81.2900 91.6666
81.3000 54.1666
81.3100 50.0000
81.3200 70.8334
81.3300 75.0000
81.3400 62.5000
81.3500 75.0000
81.3600 79.1666
81.3700 41.6666
81.3800 79.1666
81.3900 70.8334
81.4000 50.0000
81.4100 70.8334
81.4200 66.6666
81.4300 50.0000
81.4400 75.0000
81.4500 41.6666
81.4600 66.6666
81.4700 66.6666
81.4800 70.8334
81.4900 66.6666
81.5000 62.5000
81.5100 91.6666
81.5200 100.0000
81.5300 50.0000
81.5400 58.3334
81.5500 54.1666
81.5600 50.0000
81.5700 91.6666
81.5800 108.3334
81.5900 75.0000
81.6000 70.8334
81.6100 75.0000
81.6200 58.3334
81.6300 83.3334
81.6400 75.0000
81.6500 54.1666
81.6600 62.5000
81.6700 91.6666
81.6800 91.6666
81.6900 95.8334
81.7000 100.0000
81.7100 79.1666
81.7200 87.5000
81.7300 100.0000
81.7400 91.6666
81.7500 87.5000
81.7600 104.1666
81.7700 58.3334
81.7800 75.0000
81.7900 91.6666
81.8000 79.1666
81.8100 70.8334
81.8200 75.0000
81.8300 87.5000
81.8400 95.8334
81.8500 66.6666
81.8600 70.8334
81.8700 87.5000
81.8800 66.6666
81.8900 79.1666
81.9000 112.5000
81.9100 66.6666
81.9200 70.8334
81.9300 58.3334
81.9400 54.1666
81.9500 62.5000
81.9600 37.5000
81.9700 62.5000
81.9800 70.8334
81.9900 58.3334
82.0000 75.0000
82.0100 83.3334
82.0200 45.8334
82.0300 75.0000
82.0400 58.3334
82.0500 45.8334
82.0600 41.6666
82.0700 66.6666
82.0800 75.0000
82.0900 83.3334
82.1000 83.3334
82.1100 70.8334
82.1200 75.0000
82.1300 75.0000
82.1400 95.8334
82.1500 87.5000
82.1600 91.6666
82.1700 62.5000
82.1800 58.3334
82.1900 54.1666
82.2000 66.6666
82.2100 79.1666
82.2200 66.6666
82.2300 62.5000
82.2400 62.5000
82.2500 66.6666
82.2600 66.6666
82.2700 45.8334
82.2800 62.5000
82.2900 62.5000
82.3000 41.6666
82.3100 41.6666
82.3200 62.5000
82.3300 58.3334
82.3400 70.8334
82.3500 54.1666
82.3600 58.3334
82.3700 62.5000
82.3800 75.0000
82.3900 45.8334
82.4000 50.0000
82.4100 79.1666
82.4200 54.1666
82.4300 54.1666
82.4400 62.5000
82.4500 66.6666
82.4600 75.0000
82.4700 62.5000
82.4800 37.5000
82.4900 66.6666
82.5000 58.3334
82.5100 37.5000
82.5200 50.0000
82.5300 62.5000
82.5400 70.8334
82.5500 41.6666
82.5600 41.6666
82.5700 41.6666
82.5800 29.1666
82.5900 37.5000
82.6000 37.5000
82.6100 54.1666
82.6200 25.0000
82.6300 29.1666
82.6400 54.1666
82.6500 29.1666
82.6600 20.8334
82.6700 33.3334
82.6800 50.0000
82.6900 41.6666
82.7000 41.6666
82.7100 29.1666
82.7200 45.8334
82.7300 50.0000
82.7400 41.6666
82.7500 66.6666
82.7600 41.6666
82.7700 33.3334
82.7800 50.0000
82.7900 58.3334
82.8000 54.1666
82.8100 54.1666
82.8200 25.0000
82.8300 62.5000
82.8400 58.3334
82.8500 25.0000
82.8600 45.8334
82.8700 20.8334
82.8800 37.5000
82.8900 41.6666
82.9000 70.8334
82.9100 45.8334
82.9200 54.1666
82.9300 41.6666
82.9400 70.8334
82.9500 45.8334
82.9600 50.0000
82.9700 66.6666
82.9800 50.0000
82.9900 50.0000
83.0000 45.8334
83.0100 50.0000
83.0200 75.0000
83.0300 58.3334
83.0400 58.3334
83.0500 83.3334
83.0600 87.5000
83.0700 95.8334
83.0800 83.3334
83.0900 79.1666
83.1000 100.0000
83.1100 79.1666
83.1200 79.1666
83.1300 100.0000
83.1400 129.1666
83.1500 95.8334
83.1600 79.1666
83.1700 70.8334
83.1800 79.1666
83.1900 75.0000
83.2000 58.3334
83.2100 66.6666
83.2200 50.0000
83.2300 58.3334
83.2400 58.3334
83.2500 62.5000
83.2600 45.8334
83.2700 62.5000
83.2800 50.0000
83.2900 37.5000
83.3000 54.1666
83.3100 25.0000
83.3200 37.5000
83.3300 37.5000
83.3400 50.0000
83.3500 62.5000
83.3600 41.6666
83.3700 37.5000
83.3800 58.3334
83.3900 54.1666
83.4000 45.8334
83.4100 66.6666
83.4200 45.8334
83.4300 25.0000
83.4400 12.5000
83.4500 37.5000
83.4600 45.8334
83.4700 50.0000
83.4800 54.1666
83.4900 50.0000
83.5000 45.8334
83.5100 29.1666
83.5200 25.0000
83.5300 29.1666
83.5400 37.5000
83.5500 25.0000
83.5600 50.0000
83.5700 50.0000
83.5800 20.8334
83.5900 41.6666
83.6000 54.1666
83.6100 75.0000
83.6200 58.3334
83.6300 37.5000
83.6400 12.5000
83.6500 45.8334
83.6600 29.1666
83.6700 37.5000
83.6800 25.0000
83.6900 66.6666
83.7000 70.8334
83.7100 70.8334
83.7200 33.3334
83.7300 70.8334
83.7400 100.0000
83.7500 87.5000
83.7600 58.3334
83.7700 66.6666
83.7800 70.8334
83.7900 62.5000
83.8000 75.0000
83.8100 66.6666
83.8200 83.3334
83.8300 100.0000
83.8400 75.0000
83.8500 70.8334
83.8600 41.6666
83.8700 66.6666
83.8800 45.8334
83.8900 50.0000
83.9000 75.0000
83.9100 41.6666
83.9200 54.1666
83.9300 75.0000
83.9400 62.5000
83.9500 70.8334
83.9600 58.3334
83.9700 54.1666
83.9800 41.6666
83.9900 62.5000
84.0000 29.1666
84.0100 62.5000
84.0200 50.0000
84.0300 58.3334
84.0400 66.6666
84.0500 66.6666
84.0600 20.8334
84.0700 45.8334
84.0800 45.8334
84.0900 70.8334
84.1000 62.5000
84.1100 54.1666
84.1200 54.1666
84.1300 41.6666
84.1400 50.0000
84.1500 20.8334
84.1600 33.3334
84.1700 66.6666
84.1800 79.1666
84.1900 62.5000
84.2000 58.3334
84.2100 37.5000
84.2200 58.3334
84.2300 62.5000
84.2400 58.3334
84.2500 58.3334
84.2600 33.3334
84.2700 58.3334
84.2800 62.5000
84.2900 66.6666
84.3000 62.5000
84.3100 50.0000
84.3200 50.0000
84.3300 45.8334
84.3400 41.6666
84.3500 70.8334
84.3600 70.8334
84.3700 87.5000
84.3800 45.8334
84.3900 62.5000
84.4000 75.0000
84.4100 87.5000
84.4200 75.0000
84.4300 58.3334
84.4400 112.5000
84.4500 120.8334
84.4600 104.1666
84.4700 100.0000
84.4800 170.8334
84.4900 116.6666
84.5000 95.8334
84.5100 100.0000
84.5200 137.5000
84.5300 133.3334
84.5400 166.6666
84.5500 187.5000
84.5600 108.3334
84.5700 125.0000
84.5800 129.1666
84.5900 91.6666
84.6000 137.5000
84.6100 112.5000
84.6200 100.0000
84.6300 116.6666
84.6400 79.1666
84.6500 58.3334
84.6600 91.6666
84.6700 79.1666
84.6800 66.6666
84.6900 62.5000
84.7000 54.1666
84.7100 45.8334
84.7200 75.0000
84.7300 58.3334
84.7400 62.5000
84.7500 66.6666
84.7600 58.3334
84.7700 50.0000
84.7800 41.6666
84.7900 79.1666
84.8000 58.3334
84.8100 37.5000
84.8200 70.8334
84.8300 66.6666
84.8400 37.5000
84.8500 50.0000
84.8600 37.5000
84.8700 50.0000
84.8800 45.8334
84.8900 58.3334
84.9000 75.0000
84.9100 91.6666
84.9200 58.3334
84.9300 41.6666
84.9400 70.8334
84.9500 54.1666
84.9600 58.3334
84.9700 54.1666
84.9800 66.6666
84.9900 54.1666
85.0000 58.3334
85.0100 87.5000
85.0200 58.3334
85.0300 50.0000
85.0400 62.5000
85.0500 62.5000
85.0600 108.3334
85.0700 104.1666
85.0800 62.5000
85.0900 75.0000
85.1000 112.5000
85.1100 70.8334
85.1200 83.3334
85.1300 95.8334
85.1400 108.3334
85.1500 133.3334
85.1600 104.1666
85.1700 108.3334
85.1800 108.3334
85.1900 112.5000
85.2000 129.1666
85.2100 150.0000
85.2200 112.5000
85.2300 116.6666
85.2400 112.5000
85.2500 95.8334
85.2600 108.3334
85.2700 129.1666
85.2800 120.8334
85.2900 91.6666
85.3000 112.5000
85.3100 104.1666
85.3200 108.3334
85.3300 87.5000
85.3400 66.6666
85.3500 83.3334
85.3600 83.3334
85.3700 100.0000
85.3800 87.5000
85.3900 83.3334
85.4000 70.8334
85.4100 45.8334
85.4200 66.6666
85.4300 83.3334
85.4400 79.1666
85.4500 87.5000
85.4600 66.6666
85.4700 62.5000
85.4800 62.5000
85.4900 41.6666
85.5000 37.5000
85.5100 58.3334
85.5200 50.0000
85.5300 37.5000
85.5400 54.1666
85.5500 54.1666
85.5600 83.3334
85.5700 62.5000
85.5800 41.6666
85.5900 29.1666
85.6000 45.8334
85.6100 54.1666
85.6200 70.8334
85.6300 50.0000
85.6400 58.3334
85.6500 58.3334
85.6600 62.5000
85.6700 75.0000
85.6800 54.1666
85.6900 62.5000
85.7000 58.3334
85.7100 54.1666
85.7200 45.8334
85.7300 54.1666
85.7400 62.5000
85.7500 62.5000
85.7600 33.3334
85.7700 120.8334
85.7800 95.8334
85.7900 50.0000
85.8000 83.3334
85.8100 58.3334
85.8200 50.0000
85.8300 70.8334
85.8400 104.1666
85.8500 83.3334
85.8600 87.5000
85.8700 83.3334
85.8800 95.8334
85.8900 91.6666
85.9000 100.0000
85.9100 91.6666
85.9200 95.8334
85.9300 125.0000
85.9400 129.1666
85.9500 100.0000
85.9600 125.0000
85.9700 91.6666
85.9800 100.0000
85.9900 104.1666
86.0000 100.0000
86.0100 91.6666
86.0200 125.0000
86.0300 104.1666
86.0400 112.5000
86.0500 66.6666
86.0600 116.6666
86.0700 58.3334
86.0800 112.5000
86.0900 83.3334
86.1000 100.0000
86.1100 87.5000
86.1200 100.0000
86.1300 100.0000
86.1400 70.8334
86.1500 91.6666
86.1600 75.0000
86.1700 50.0000
86.1800 62.5000
86.1900 79.1666
86.2000 66.6666
86.2100 79.1666
86.2200 91.6666
86.2300 58.3334
86.2400 62.5000
86.2500 66.6666
86.2600 108.3334
86.2700 79.1666
86.2800 62.5000
86.2900 91.6666
86.3000 95.8334
86.3100 83.3334
86.3200 70.8334
86.3300 62.5000
86.3400 58.3334
86.3500 87.5000
86.3600 66.6666
86.3700 58.3334
86.3800 41.6666
86.3900 95.8334
86.4000 75.0000
86.4100 70.8334
86.4200 75.0000
86.4300 87.5000
86.4400 87.5000
86.4500 75.0000
86.4600 83.3334
86.4700 87.5000
86.4800 125.0000
86.4900 116.6666
86.5000 100.0000
86.5100 91.6666
86.5200 108.3334
86.5300 116.6666
86.5400 125.0000
86.5500 108.3334
86.5600 133.3334
86.5700 125.0000
86.5800 129.1666
86.5900 212.5000
86.6000 175.0000
86.6100 220.8334
86.6200 191.6666
86.6300 225.0000
86.6400 158.3334
86.6500 191.6666
86.6600 245.8334
86.6700 241.6666
86.6800 220.8334
86.6900 216.6666
86.7000 170.8334
86.7100 191.6666
86.7200 191.6666
86.7300 129.1666
86.7400 125.0000
86.7500 125.0000
86.7600 112.5000
86.7700 87.5000
86.7800 116.6666
86.7900 104.1666
86.8000 125.0000
86.8100 79.1666
86.8200 95.8334
86.8300 62.5000
86.8400 54.1666
86.8500 87.5000
86.8600 87.5000
86.8700 66.6666
86.8800 45.8334
86.8900 66.6666
86.9000 41.6666
86.9100 70.8334
86.9200 25.0000
86.9300 58.3334
86.9400 50.0000
86.9500 66.6666
86.9600 58.3334
86.9700 75.0000
86.9800 58.3334
86.9900 95.8334
87.0000 66.6666
87.0100 58.3334
87.0200 54.1666
87.0300 62.5000
87.0400 41.6666
87.0500 66.6666
87.0600 62.5000
87.0700 50.0000
87.0800 41.6666
87.0900 25.0000
87.1000 58.3334
87.1100 58.3334
87.1200 50.0000
87.1300 66.6666
87.1400 41.6666
87.1500 62.5000
87.1600 75.0000
87.1700 58.3334
87.1800 37.5000
87.1900 66.6666
87.2000 91.6666
87.2100 75.0000
87.2200 66.6666
87.2300 104.1666
87.2400 70.8334
87.2500 70.8334
87.2600 79.1666
87.2700 75.0000
87.2800 87.5000
87.2900 112.5000
87.3000 104.1666
87.3100 91.6666
87.3200 108.3334
87.3300 91.6666
87.3400 104.1666
87.3500 125.0000
87.3600 116.6666
87.3700 133.3334
87.3800 133.3334
87.3900 108.3334
87.4000 116.6666
87.4100 83.3334
87.4200 162.5000
87.4300 137.5000
87.4400 87.5000
87.4500 87.5000
87.4600 91.6666
87.4700 62.5000
87.4800 75.0000
87.4900 66.6666
87.5000 62.5000
87.5100 70.8334
87.5200 79.1666
87.5300 62.5000
87.5400 41.6666
87.5500 62.5000
87.5600 75.0000
87.5700 54.1666
87.5800 54.1666
87.5900 37.5000
87.6000 70.8334
87.6100 29.1666
87.6200 54.1666
87.6300 50.0000
87.6400 45.8334
87.6500 41.6666
87.6600 29.1666
87.6700 54.1666
87.6800 54.1666
87.6900 58.3334
87.7000 70.8334
87.7100 41.6666
87.7200 54.1666
87.7300 58.3334
87.7400 58.3334
87.7500 58.3334
87.7600 54.1666
87.7700 33.3334
87.7800 45.8334
87.7900 37.5000
87.8000 29.1666
87.8100 58.3334
87.8200 41.6666
87.8300 54.1666
87.8400 66.6666
87.8500 45.8334
87.8600 50.0000
87.8700 33.3334
87.8800 50.0000
87.8900 29.1666
87.9000 58.3334
87.9100 50.0000
87.9200 58.3334
87.9300 58.3334
87.9400 50.0000
87.9500 25.0000
87.9600 45.8334
87.9700 50.0000
87.9800 37.5000
87.9900 25.0000
88.0000 62.5000
88.0100 37.5000
88.0200 45.8334
88.0300 41.6666
88.0400 54.1666
88.0500 45.8334
88.0600 62.5000
88.0700 41.6666
88.0800 62.5000
88.0900 45.8334
88.1000 70.8334
88.1100 62.5000
88.1200 58.3334
88.1300 54.1666
88.1400 70.8334
88.1500 58.3334
88.1600 45.8334
88.1700 66.6666
88.1800 58.3334
88.1900 66.6666
88.2000 54.1666
88.2100 66.6666
88.2200 58.3334
88.2300 75.0000
88.2400 50.0000
88.2500 79.1666
88.2600 54.1666
88.2700 75.0000
88.2800 58.3334
88.2900 70.8334
88.3000 87.5000
88.3100 41.6666
88.3200 62.5000
88.3300 58.3334
88.3400 37.5000
88.3500 75.0000
88.3600 54.1666
88.3700 75.0000
88.3800 33.3334
88.3900 58.3334
88.4000 62.5000
88.4100 37.5000
88.4200 50.0000
88.4300 70.8334
88.4400 50.0000
88.4500 54.1666
88.4600 58.3334
88.4700 58.3334
88.4800 70.8334
88.4900 50.0000
88.5000 75.0000
88.5100 58.3334
88.5200 41.6666
88.5300 62.5000
88.5400 75.0000
88.5500 58.3334
88.5600 66.6666
88.5700 41.6666
88.5800 58.3334
88.5900 62.5000
88.6000 54.1666
88.6100 58.3334
88.6200 75.0000
88.6300 120.8334
88.6400 70.8334
88.6500 70.8334
88.6600 62.5000
88.6700 58.3334
88.6800 62.5000
88.6900 83.3334
88.7000 83.3334
88.7100 95.8334
88.7200 75.0000
88.7300 95.8334
88.7400 91.6666
88.7500 120.8334
88.7600 79.1666
88.7700 87.5000
88.7800 91.6666
88.7900 87.5000
88.8000 108.3334
88.8100 95.8334
88.8200 87.5000
88.8300 120.8334
88.8400 91.6666
88.8500 108.3334
88.8600 70.8334
88.8700 104.1666
88.8800 79.1666
88.8900 75.0000
88.9000 54.1666
88.9100 58.3334
88.9200 62.5000
88.9300 75.0000
88.9400 66.6666
88.9500 70.8334
88.9600 54.1666
88.9700 62.5000
88.9800 62.5000
88.9900 66.6666
89.0000 54.1666
89.0100 45.8334
89.0200 75.0000
89.0300 62.5000
89.0400 62.5000
89.0500 66.6666
89.0600 83.3334
89.0700 50.0000
89.0800 54.1666
89.0900 58.3334
89.1000 41.6666
89.1100 29.1666
89.1200 29.1666
89.1300 62.5000
89.1400 79.1666
89.1500 70.8334
89.1600 37.5000
89.1700 16.6666
89.1800 25.0000
89.1900 41.6666
89.2000 45.8334
89.2100 54.1666
89.2200 70.8334
89.2300 66.6666
89.2400 50.0000
89.2500 62.5000
89.2600 79.1666
89.2700 83.3334
89.2800 70.8334
89.2900 70.8334
89.3000 79.1666
89.3100 75.0000
89.3200 79.1666
89.3300 45.8334
89.3400 58.3334
89.3500 70.8334
89.3600 54.1666
89.3700 70.8334
89.3800 75.0000
89.3900 54.1666
89.4000 83.3334
89.4100 66.6666
89.4200 54.1666
89.4300 58.3334
89.4400 95.8334
89.4500 70.8334
89.4600 112.5000
89.4700 83.3334
89.4800 83.3334
89.4900 83.3334
89.5000 79.1666
89.5100 83.3334
89.5200 79.1666
89.5300 91.6666
89.5400 75.0000
89.5500 83.3334
89.5600 62.5000
89.5700 66.6666
89.5800 62.5000
89.5900 87.5000
89.6000 100.0000
89.6100 95.8334
89.6200 75.0000
89.6300 70.8334
89.6400 95.8334
89.6500 108.3334
89.6600 83.3334
89.6700 66.6666
89.6800 66.6666
89.6900 70.8334
89.7000 91.6666
89.7100 83.3334
89.7200 66.6666
89.7300 79.1666
89.7400 79.1666
89.7500 108.3334
89.7600 66.6666
89.7700 54.1666
89.7800 70.8334
89.7900 54.1666
89.8000 62.5000
89.8100 75.0000
89.8200 75.0000
89.8300 41.6666
89.8400 79.1666
89.8500 83.3334
89.8600 66.6666
89.8700 58.3334
89.8800 66.6666
89.8900 41.6666
89.9000 41.6666
89.9100 58.3334
89.9200 45.8334
89.9300 62.5000
89.9400 108.3334
89.9500 62.5000
89.9600 66.6666
89.9700 70.8334
89.9800 79.1666
89.9900 66.6666
90.0000 70.8334
90.0100 75.0000
90.0200 58.3334
90.0300 75.0000
90.0400 62.5000
90.0500 91.6666
90.0600 83.3334
90.0700 79.1666
90.0800 95.8334
90.0900 108.3334
90.1000 95.8334
90.1100 95.8334
90.1200 91.6666
90.1300 125.0000
90.1400 154.1666
90.1500 145.8334
90.1600 145.8334
90.1700 154.1666
90.1800 191.6666
90.1900 162.5000
90.2000 141.6666
90.2100 158.3334
90.2200 170.8334
90.2300 208.3334
90.2400 183.3334
90.2500 179.1666
90.2600 183.3334
90.2700 187.5000
90.2800 125.0000
90.2900 158.3334
90.3000 100.0000
90.3100 120.8334
90.3200 108.3334
90.3300 95.8334
90.3400 91.6666
90.3500 95.8334
90.3600 108.3334
90.3700 87.5000
90.3800 91.6666
90.3900 108.3334
90.4000 87.5000
90.4100 79.1666
90.4200 83.3334
90.4300 104.1666
90.4400 79.1666
90.4500 66.6666
90.4600 83.3334
90.4700 83.3334
90.4800 91.6666
90.4900 79.1666
90.5000 79.1666
90.5100 62.5000
90.5200 100.0000
90.5300 83.3334
90.5400 79.1666
90.5500 79.1666
90.5600 75.0000
90.5700 95.8334
90.5800 75.0000
90.5900 70.8334
90.6000 58.3334
90.6100 70.8334
90.6200 79.1666
90.6300 50.0000
90.6400 54.1666
90.6500 50.0000
90.6600 45.8334
90.6700 54.1666
90.6800 83.3334
90.6900 58.3334
90.7000 45.8334
90.7100 87.5000
90.7200 108.3334
90.7300 75.0000
90.7400 75.0000
90.7500 79.1666
90.7600 70.8334
90.7700 54.1666
90.7800 62.5000
90.7900 91.6666
90.8000 83.3334
90.8100 54.1666
90.8200 79.1666
90.8300 83.3334
90.8400 104.1666
90.8500 100.0000
90.8600 108.3334
90.8700 141.6666
90.8800 91.6666
90.8900 129.1666
90.9000 145.8334
90.9100 133.3334
90.9200 154.1666
90.9300 129.1666
90.9400 125.0000
90.9500 154.1666
90.9600 133.3334
90.9700 137.5000
90.9800 116.6666
90.9900 75.0000
91.0000 95.8334
91.0100 54.1666
91.0200 75.0000
91.0300 87.5000
91.0400 66.6666
91.0500 66.6666
91.0600 75.0000
91.0700 62.5000
91.0800 62.5000
91.0900 75.0000
91.1000 70.8334
91.1100 75.0000
91.1200 79.1666
91.1300 50.0000
91.1400 41.6666
91.1500 54.1666
91.1600 79.1666
91.1700 58.3334
91.1800 62.5000
91.1900 54.1666
91.2000 50.0000
91.2100 70.8334
91.2200 50.0000
91.2300 54.1666
91.2400 54.1666
91.2500 29.1666
91.2600 50.0000
91.2700 87.5000
91.2800 58.3334
91.2900 58.3334
91.3000 25.0000
91.3100 45.8334
91.3200 62.5000
91.3300 70.8334
91.3400 58.3334
91.3500 62.5000
91.3600 70.8334
91.3700 62.5000
91.3800 75.0000
91.3900 37.5000
91.4000 41.6666
91.4100 50.0000
91.4200 58.3334
91.4300 79.1666
91.4400 58.3334
91.4500 50.0000
91.4600 45.8334
91.4700 54.1666
91.4800 62.5000
91.4900 54.1666
91.5000 50.0000
91.5100 75.0000
91.5200 100.0000
91.5300 125.0000
91.5400 83.3334
91.5500 112.5000
91.5600 116.6666
91.5700 133.3334
91.5800 104.1666
91.5900 133.3334
91.6000 125.0000
91.6100 120.8334
91.6200 108.3334
91.6300 133.3334
91.6400 75.0000
91.6500 145.8334
91.6600 129.1666
91.6700 137.5000
91.6800 129.1666
91.6900 104.1666
91.7000 120.8334
91.7100 108.3334
91.7200 104.1666
91.7300 83.3334
91.7400 66.6666
91.7500 95.8334
91.7600 66.6666
91.7700 66.6666
91.7800 70.8334
91.7900 108.3334
91.8000 66.6666
91.8100 108.3334
91.8200 66.6666
91.8300 75.0000
91.8400 54.1666
91.8500 79.1666
91.8600 50.0000
91.8700 37.5000
91.8800 66.6666
91.8900 50.0000
91.9000 45.8334
91.9100 66.6666
91.9200 75.0000
91.9300 91.6666
91.9400 75.0000
91.9500 62.5000
91.9600 83.3334
91.9700 41.6666
91.9800 37.5000
91.9900 66.6666
92.0000 62.5000
92.0100 66.6666
92.0200 66.6666
92.0300 45.8334
92.0400 33.3334
92.0500 41.6666
92.0600 54.1666
92.0700 33.3334
92.0800 66.6666
92.0900 62.5000
92.1000 62.5000
92.1100 45.8334
92.1200 70.8334
92.1300 58.3334
92.1400 66.6666
92.1500 58.3334
92.1600 62.5000
92.1700 54.1666
92.1800 45.8334
92.1900 54.1666
92.2000 54.1666
92.2100 41.6666
92.2200 70.8334
92.2300 66.6666
92.2400 91.6666
92.2500 70.8334
92.2600 83.3334
92.2700 108.3334
92.2800 83.3334
92.2900 75.0000
92.3000 87.5000
92.3100 91.6666
92.3200 75.0000
92.3300 75.0000
92.3400 50.0000
92.3500 87.5000
92.3600 75.0000
92.3700 54.1666
92.3800 62.5000
92.3900 100.0000
92.4000 79.1666
92.4100 75.0000
92.4200 50.0000
92.4300 75.0000
92.4400 58.3334
92.4500 58.3334
92.4600 62.5000
92.4700 54.1666
92.4800 54.1666
92.4900 79.1666
92.5000 66.6666
92.5100 58.3334
92.5200 62.5000
92.5300 70.8334
92.5400 79.1666
92.5500 66.6666
92.5600 66.6666
92.5700 79.1666
92.5800 62.5000
92.5900 54.1666
92.6000 45.8334
92.6100 54.1666
92.6200 79.1666
92.6300 62.5000
92.6400 62.5000
92.6500 50.0000
92.6600 37.5000
92.6700 62.5000
92.6800 54.1666
92.6900 41.6666
92.7000 70.8334
92.7100 29.1666
92.7200 66.6666
92.7300 83.3334
92.7400 50.0000
92.7500 62.5000
92.7600 54.1666
92.7700 62.5000
92.7800 37.5000
92.7900 66.6666
92.8000 45.8334
92.8100 37.5000
92.8200 50.0000
92.8300 50.0000
92.8400 58.3334
92.8500 50.0000
92.8600 79.1666
92.8700 54.1666
92.8800 45.8334
92.8900 62.5000
92.9000 79.1666
92.9100 54.1666
92.9200 54.1666
92.9300 79.1666
92.9400 83.3334
92.9500 91.6666
92.9600 116.6666
92.9700 91.6666
92.9800 79.1666
92.9900 91.6666
93.0000 79.1666
93.0100 100.0000
93.0200 108.3334
93.0300 129.1666
93.0400 154.1666
93.0500 116.6666
93.0600 112.5000
93.0700 170.8334
93.0800 162.5000
93.0900 175.0000
93.1000 125.0000
93.1100 187.5000
93.1200 129.1666
93.1300 104.1666
93.1400 112.5000
93.1500 79.1666
93.1600 108.3334
93.1700 112.5000
93.1800 120.8334
93.1900 100.0000
93.2000 95.8334
93.2100 83.3334
93.2200 104.1666
93.2300 79.1666
93.2400 75.0000
93.2500 75.0000
93.2600 41.6666
93.2700 70.8334
93.2800 54.1666
93.2900 45.8334
93.3000 50.0000
93.3100 37.5000
93.3200 41.6666
93.3300 29.1666
93.3400 54.1666
93.3500 54.1666
93.3600 41.6666
93.3700 41.6666
93.3800 37.5000
93.3900 41.6666
93.4000 41.6666
93.4100 50.0000
93.4200 33.3334
93.4300 50.0000
93.4400 54.1666
93.4500 54.1666
93.4600 37.5000
93.4700 29.1666
93.4800 37.5000
93.4900 58.3334
93.5000 45.8334
93.5100 33.3334
93.5200 37.5000
93.5300 41.6666
93.5400 45.8334
93.5500 33.3334
93.5600 25.0000
93.5700 37.5000
93.5800 37.5000
93.5900 45.8334
93.6000 16.6666
93.6100 16.6666
93.6200 37.5000
93.6300 37.5000
93.6400 29.1666
93.6500 58.3334
93.6600 33.3334
93.6700 41.6666
93.6800 45.8334
93.6900 20.8334
93.7000 41.6666
93.7100 50.0000
93.7200 45.8334
93.7300 29.1666
93.7400 33.3334
93.7500 79.1666
93.7600 45.8334
93.7700 45.8334
93.7800 54.1666
93.7900 66.6666
93.8000 45.8334
93.8100 50.0000
93.8200 79.1666
93.8300 87.5000
93.8400 41.6666
93.8500 41.6666
93.8600 37.5000
93.8700 45.8334
93.8800 54.1666
93.8900 45.8334
93.9000 58.3334
93.9100 50.0000
93.9200 41.6666
93.9300 58.3334
93.9400 50.0000
93.9500 41.6666
93.9600 66.6666
93.9700 54.1666
93.9800 37.5000
93.9900 45.8334
94.0000 29.1666
94.0100 25.0000
94.0200 50.0000
94.0300 33.3334
94.0400 66.6666
94.0500 45.8334
94.0600 29.1666
94.0700 54.1666
94.0800 33.3334
94.0900 41.6666
94.1000 54.1666
94.1100 66.6666
94.1200 41.6666
94.1300 16.6666
94.1400 58.3334
94.1500 87.5000
94.1600 62.5000
94.1700 70.8334
94.1800 70.8334
94.1900 50.0000
94.2000 66.6666
94.2100 58.3334
94.2200 37.5000
94.2300 70.8334
94.2400 75.0000
94.2500 54.1666
94.2600 54.1666
94.2700 58.3334
94.2800 70.8334
94.2900 58.3334
94.3000 58.3334
94.3100 83.3334
94.3200 66.6666
94.3300 95.8334
94.3400 83.3334
94.3500 104.1666
94.3600 70.8334
94.3700 91.6666
94.3800 58.3334
94.3900 83.3334
94.4000 116.6666
94.4100 87.5000
94.4200 83.3334
94.4300 108.3334
94.4400 145.8334
94.4500 108.3334
94.4600 116.6666
94.4700 100.0000
94.4800 95.8334
94.4900 112.5000
94.5000 129.1666
94.5100 104.1666
94.5200 145.8334
94.5300 91.6666
94.5400 100.0000
94.5500 100.0000
94.5600 79.1666
94.5700 104.1666
94.5800 91.6666
94.5900 95.8334
94.6000 79.1666
94.6100 87.5000
94.6200 87.5000
94.6300 33.3334
94.6400 70.8334
94.6500 75.0000
94.6600 45.8334
94.6700 58.3334
94.6800 75.0000
94.6900 37.5000
94.7000 75.0000
94.7100 54.1666
94.7200 41.6666
94.7300 62.5000
94.7400 37.5000
94.7500 41.6666
94.7600 37.5000
94.7700 37.5000
94.7800 62.5000
94.7900 66.6666
94.8000 45.8334
94.8100 50.0000
94.8200 41.6666
94.8300 66.6666
94.8400 83.3334
94.8500 33.3334
94.8600 37.5000
94.8700 41.6666
94.8800 58.3334
94.8900 33.3334
94.9000 33.3334
94.9100 29.1666
94.9200 45.8334
94.9300 41.6666
94.9400 66.6666
94.9500 25.0000
94.9600 29.1666
94.9700 66.6666
94.9800 62.5000
94.9900 50.0000
95.0000 45.8334
95.0100 45.8334
95.0200 79.1666
95.0300 45.8334
95.0400 33.3334
95.0500 50.0000
95.0600 33.3334
95.0700 70.8334
95.0800 50.0000
95.0900 70.8334
95.1000 62.5000
95.1100 58.3334
95.1200 37.5000
95.1300 33.3334
95.1400 70.8334
95.1500 50.0000
95.1600 37.5000
95.1700 29.1666
95.1800 45.8334
95.1900 50.0000
95.2000 58.3334
95.2100 50.0000
95.2200 62.5000
95.2300 41.6666
95.2400 75.0000
95.2500 70.8334
95.2600 41.6666
95.2700 45.8334
95.2800 37.5000
95.2900 54.1666
95.3000 54.1666
95.3100 41.6666
95.3200 45.8334
95.3300 33.3334
95.3400 25.0000
95.3500 33.3334
95.3600 37.5000
95.3700 50.0000
95.3800 25.0000
95.3900 41.6666
95.4000 33.3334
95.4100 33.3334
95.4200 25.0000
95.4300 41.6666
95.4400 75.0000
95.4500 75.0000
95.4600 45.8334
95.4700 37.5000
95.4800 45.8334
95.4900 58.3334
95.5000 62.5000
95.5100 37.5000
95.5200 37.5000
95.5300 37.5000
95.5400 29.1666
95.5500 41.6666
95.5600 45.8334
95.5700 62.5000
95.5800 62.5000
95.5900 50.0000
95.6000 37.5000
95.6100 37.5000
95.6200 25.0000
95.6300 58.3334
95.6400 37.5000
95.6500 33.3334
95.6600 37.5000
95.6700 58.3334
95.6800 50.0000
95.6900 41.6666
95.7000 62.5000
95.7100 45.8334
95.7200 79.1666
95.7300 41.6666
95.7400 50.0000
95.7500 41.6666
95.7600 62.5000
95.7700 45.8334
95.7800 45.8334
95.7900 50.0000
95.8000 62.5000
95.8100 50.0000
95.8200 112.5000
95.8300 108.3334
95.8400 37.5000
95.8500 33.3334
95.8600 54.1666
95.8700 87.5000
95.8800 66.6666
95.8900 83.3334
95.9000 129.1666
95.9100 75.0000
95.9200 91.6666
95.9300 125.0000
95.9400 87.5000
95.9500 66.6666
95.9600 108.3334
95.9700 95.8334
95.9800 58.3334
95.9900 75.0000
96.0000 87.5000
96.0100 75.0000
96.0200 66.6666
96.0300 58.3334
96.0400 70.8334
96.0500 58.3334
96.0600 79.1666
96.0700 54.1666
96.0800 54.1666
96.0900 58.3334
96.1000 45.8334
96.1100 50.0000
96.1200 58.3334
96.1300 54.1666
96.1400 37.5000
96.1500 37.5000
96.1600 62.5000
96.1700 41.6666
96.1800 54.1666
96.1900 66.6666
96.2000 29.1666
96.2100 45.8334
96.2200 75.0000
96.2300 41.6666
96.2400 37.5000
96.2500 33.3334
96.2600 12.5000
96.2700 41.6666
96.2800 25.0000
96.2900 54.1666
96.3000 25.0000
96.3100 20.8334
96.3200 50.0000
96.3300 16.6666
96.3400 12.5000
96.3500 37.5000
96.3600 33.3334
96.3700 37.5000
96.3800 29.1666
96.3900 41.6666
96.4000 50.0000
96.4100 41.6666
96.4200 50.0000
96.4300 37.5000
96.4400 29.1666
96.4500 37.5000
96.4600 45.8334
96.4700 29.1666
96.4800 33.3334
96.4900 41.6666
96.5000 50.0000
96.5100 29.1666
96.5200 58.3334
96.5300 66.6666
96.5400 33.3334
96.5500 79.1666
96.5600 37.5000
96.5700 45.8334
96.5800 41.6666
96.5900 50.0000
96.6000 45.8334
96.6100 66.6666
96.6200 50.0000
96.6300 58.3334
96.6400 62.5000
96.6500 50.0000
96.6600 50.0000
96.6700 62.5000
96.6800 54.1666
96.6900 70.8334
96.7000 54.1666
96.7100 54.1666
96.7200 50.0000
96.7300 41.6666
96.7400 29.1666
96.7500 45.8334
96.7600 33.3334
96.7700 33.3334
96.7800 37.5000
96.7900 41.6666
96.8000 25.0000
96.8100 37.5000
96.8200 29.1666
96.8300 41.6666
96.8400 29.1666
96.8500 41.6666
96.8600 50.0000
96.8700 58.3334
96.8800 62.5000
96.8900 16.6666
96.9000 37.5000
96.9100 50.0000
96.9200 33.3334
96.9300 37.5000
96.9400 41.6666
96.9500 50.0000
96.9600 41.6666
96.9700 45.8334
96.9800 41.6666
96.9900 45.8334
97.0000 37.5000
97.0100 29.1666
97.0200 20.8334
97.0300 37.5000
97.0400 37.5000
97.0500 45.8334
97.0600 33.3334
97.0700 41.6666
97.0800 45.8334
97.0900 41.6666
97.1000 25.0000
97.1100 25.0000
97.1200 54.1666
97.1300 33.3334
97.1400 37.5000
97.1500 33.3334
97.1600 45.8334
97.1700 29.1666
97.1800 33.3334
97.1900 20.8334
97.2000 45.8334
97.2100 16.6666
97.2200 29.1666
97.2300 50.0000
97.2400 62.5000
97.2500 25.0000
97.2600 33.3334
97.2700 54.1666
97.2800 33.3334
97.2900 41.6666
97.3000 54.1666
97.3100 70.8334
97.3200 58.3334
97.3300 45.8334
97.3400 50.0000
97.3500 66.6666
97.3600 50.0000
97.3700 66.6666
97.3800 45.8334
97.3900 37.5000
97.4000 37.5000
97.4100 29.1666
97.4200 62.5000
97.4300 37.5000
97.4400 37.5000
97.4500 41.6666
97.4600 16.6666
97.4700 54.1666
97.4800 25.0000
97.4900 25.0000
97.5000 25.0000
97.5100 41.6666
97.5200 29.1666
97.5300 25.0000
97.5400 37.5000
97.5500 33.3334
97.5600 66.6666
97.5700 29.1666
97.5800 33.3334
97.5900 33.3334
97.6000 16.6666
97.6100 25.0000
97.6200 41.6666
97.6300 12.5000
97.6400 29.1666
97.6500 33.3334
97.6600 54.1666
97.6700 33.3334
97.6800 54.1666
97.6900 37.5000
97.7000 45.8334
97.7100 41.6666
97.7200 20.8334
97.7300 20.8334
97.7400 37.5000
97.7500 29.1666
97.7600 29.1666
97.7700 33.3334
97.7800 29.1666
97.7900 33.3334
97.8000 37.5000
97.8100 37.5000
97.8200 45.8334
97.8300 50.0000
97.8400 54.1666
97.8500 45.8334
97.8600 20.8334
97.8700 41.6666
97.8800 50.0000
97.8900 54.1666
97.9000 33.3334
97.9100 66.6666
97.9200 41.6666
97.9300 16.6666
97.9400 29.1666
97.9500 41.6666
97.9600 37.5000
97.9700 33.3334
97.9800 50.0000
97.9900 37.5000
98.0000 33.3334
98.0100 58.3334
98.0200 58.3334
98.0300 41.6666
98.0400 70.8334
98.0500 45.8334
98.0600 33.3334
98.0700 54.1666
98.0800 37.5000
98.0900 45.8334
98.1000 25.0000
98.1100 54.1666
98.1200 37.5000
98.1300 29.1666
98.1400 33.3334
98.1500 54.1666
98.1600 41.6666
98.1700 54.1666
98.1800 25.0000
98.1900 29.1666
98.2000 33.3334
98.2100 66.6666
98.2200 54.1666
98.2300 54.1666
98.2400 45.8334
98.2500 50.0000
98.2600 25.0000
98.2700 45.8334
98.2800 41.6666
98.2900 41.6666
98.3000 45.8334
98.3100 50.0000
98.3200 66.6666
98.3300 33.3334
98.3400 50.0000
98.3500 29.1666
98.3600 33.3334
98.3700 45.8334
98.3800 50.0000
98.3900 66.6666
98.4000 33.3334
98.4100 54.1666
98.4200 37.5000
98.4300 50.0000
98.4400 54.1666
98.4500 41.6666
98.4600 37.5000
98.4700 41.6666
98.4800 50.0000
98.4900 41.6666
98.5000 37.5000
98.5100 58.3334
98.5200 50.0000
98.5300 41.6666
98.5400 37.5000
98.5500 33.3334
98.5600 25.0000
98.5700 41.6666
98.5800 54.1666
98.5900 45.8334
98.6000 41.6666
98.6100 66.6666
98.6200 45.8334
98.6300 70.8334
98.6400 45.8334
98.6500 50.0000
98.6600 33.3334
98.6700 58.3334
98.6800 54.1666
98.6900 50.0000
98.7000 45.8334
98.7100 58.3334
98.7200 29.1666
98.7300 70.8334
98.7400 70.8334
98.7500 54.1666
98.7600 91.6666
98.7700 79.1666
98.7800 104.1666
98.7900 91.6666
98.8000 70.8334
98.8100 62.5000
98.8200 66.6666
98.8300 62.5000
98.8400 62.5000
98.8500 58.3334
98.8600 54.1666
98.8700 54.1666
98.8800 54.1666
98.8900 50.0000
98.9000 66.6666
98.9100 54.1666
98.9200 33.3334
98.9300 54.1666
98.9400 50.0000
98.9500 25.0000
98.9600 33.3334
98.9700 41.6666
98.9800 45.8334
98.9900 33.3334
99.0000 45.8334
99.0100 37.5000
99.0200 33.3334
99.0300 8.3334
99.0400 45.8334
99.0500 62.5000
99.0600 33.3334
99.0700 33.3334
99.0800 50.0000
99.0900 58.3334
99.1000 41.6666
99.1100 37.5000
99.1200 29.1666
99.1300 16.6666
99.1400 8.3334
99.1500 45.8334
99.1600 20.8334
99.1700 41.6666
99.1800 33.3334
99.1900 45.8334
99.2000 45.8334
99.2100 50.0000
99.2200 41.6666
99.2300 29.1666
99.2400 54.1666
99.2500 29.1666
99.2600 25.0000
99.2700 45.8334
99.2800 25.0000
99.2900 62.5000
99.3000 37.5000
99.3100 25.0000
99.3200 41.6666
99.3300 33.3334
99.3400 45.8334
99.3500 54.1666
99.3600 33.3334
99.3700 33.3334
99.3800 25.0000
99.3900 45.8334
99.4000 25.0000
99.4100 29.1666
99.4200 33.3334
99.4300 29.1666
99.4400 45.8334
99.4500 29.1666
99.4600 25.0000
99.4700 29.1666
99.4800 29.1666
99.4900 29.1666
99.5000 20.8334
99.5100 37.5000
99.5200 25.0000
99.5300 29.1666
99.5400 33.3334
99.5500 33.3334
99.5600 41.6666
99.5700 50.0000
99.5800 33.3334
99.5900 8.3334
99.6000 16.6666
99.6100 37.5000
99.6200 62.5000
99.6300 33.3334
99.6400 41.6666
99.6500 62.5000
99.6600 37.5000
99.6700 37.5000
99.6800 41.6666
99.6900 45.8334
99.7000 33.3334
99.7100 16.6666
99.7200 29.1666
99.7300 20.8334
99.7400 25.0000
99.7500 45.8334
99.7600 29.1666
99.7700 45.8334
99.7800 41.6666
99.7900 62.5000
99.8000 25.0000
99.8100 25.0000
99.8200 29.1666
99.8300 25.0000
99.8400 50.0000
99.8500 37.5000
99.8600 54.1666
99.8700 50.0000
99.8800 25.0000
99.8900 29.1666
99.9000 16.6666
99.9100 54.1666
99.9200 16.6666
99.9300 25.0000
99.9400 54.1666
99.9500 33.3334
99.9600 16.6666
99.9700 29.1666
99.9800 54.1666
99.9900 41.6666
100.0000 25.0000
