*FILE_COMMENT ""
*FILE_MD5 ""
*FILE_MEMO ""
*FILE_OPERATOR "Administrator"
*FILE_PACKAGE_NAME "Package_BB"
*FILE_PART_ID "GeneralMeasurement(BB)"
*FILE_SAMPLE ""
*FILE_SYSTEM_NAME "SmartLabXE"
*FILE_TYPE "RAS_RAW"
*FILE_USERGROUP "Administrators"
*FILE_VERSION "1"
*HW_ATTACHMENT_ID "ATT0022"
*HW_ATTACHMENT_NAME "RxRy"
*HW_ATTACHMENT_NAME_INTERNAL "RxRy"
*HW_COUNTER_ID-0 "CUT0041"
*HW_COUNTER_ID-2 "CMC0020"
*HW_COUNTER_MONOCHRO_ID "CMC0020"
*HW_COUNTER_MONOCHRO_NAME "None"
*HW_COUNTER_MONOCHRO_NAME_INTERNAL "None"
*HW_COUNTER_NAME_INTERNAL "DteX250(H)"
*HW_COUNTER_NAME-0 "DteX250(H)"
*HW_COUNTER_NAME-1 "None"
*HW_COUNTER_NAME-2 "None"
*HW_COUNTER_PIXEL_SIZE "0.075"
*HW_COUNTER_SELECT_NAME "DteX250(H)"
*HW_EXTERNAL_CONTROLLER_NAME "None"
*HW_EXTERNAL_CONTROLLER_NAME_INTERNAL "None"
*HW_GONIOMETER_ID "GON0022"
*HW_GONIOMETER_NAME "StandardInplane"
*HW_GONIOMETER_NAME_INTERNAL "StandardInplaneEnc"
*HW_GONIOMETER_RADIUS-0 "90.0"
*HW_GONIOMETER_RADIUS-1 "114.0"
*HW_GONIOMETER_RADIUS-2 "173.5"
*HW_GONIOMETER_RADIUS-3 "300.0"
*HW_GONIOMETER_RADIUS-4 "187.0"
*HW_GONIOMETER_RADIUS-5 "300.0"
*HW_GONIOMETER_RADIUS-6 "113.0"
*HW_GONIOMETER_RADIUS-7 "331.0"
*HW_I_CBO_ID "CBO0021"
*HW_I_CBO_NAME "CBO"
*HW_I_CBO_NAME_INTERNAL "CBO"
*HW_I_MONOCHRO_ID "ISO0021"
*HW_I_MONOCHRO_NAME "IPS_adaptor"
*HW_I_MONOCHRO_NAME_INTERNAL "IPS_adaptor"
*HW_I_OPT_ID-1 "CBO0021"
*HW_I_PRIMARY_NAME_INTERNAL "PrimaryUnit"
*HW_I_SLIT_NAME_INTERNAL "AutoIntegrated"
*HW_R_ATTENUATER_AUTOMODE "0"
*HW_R_ATTENUATOR_NAME_INTERNAL "AutoSlim(Cu)"
*HW_R_OPT_ID-0 "RSS0022"
*HW_R_OPT_ID-1 "RCR0022"
*HW_R_OPT_ID-2 "RSO0021"
*HW_R_OPT_ID-3 "RRS0022"
*HW_R_ROD_ID "RCR0022"
*HW_R_ROD_NAME "ROD_adaptor"
*HW_R_ROD_NAME_INTERNAL "ROD_adaptor"
*HW_R_RPS_ID "RSO0021"
*HW_R_RPS_NAME "RPS_adaptor"
*HW_R_RPS_NAME_INTERNAL "RPS_adaptor"
*HW_R_RS_ID "RRS0022"
*HW_R_RS_NAME "Virtual"
*HW_R_RS_NAME_INTERNAL "Virtual"
*HW_R_SS_ID "RSS0022"
*HW_R_SS_NAME "Auto_Zr"
*HW_R_SS_NAME_INTERNAL "Auto_Zr"
*HW_ROBOT_NAME "No_unit"
*HW_ROBOT_NAME_INTERNAL "No_unit"
*HW_SAMPLE_CAMERA_NAME "None"
*HW_SAMPLE_CAMERA_NAME_INTERNAL "None"
*HW_SAMPLE_HOLDER_ID "SMP0022"
*HW_SAMPLE_HOLDER_NAME "Z_Phi"
*HW_SAMPLE_HOLDER_NAME_INTERNAL "Z_Phi"
*HW_SAMPLE_NAME "PowderSample"
*HW_SAMPLE_NAME_INTERNAL "PowderSample"
*HW_SAMPLE_PLATE_NAME "HeightReference"
*HW_SAMPLE_PLATE_NAME_INTERNAL "HeightReference"
*HW_SAMPLE_SPACER_NAME "None"
*HW_SAMPLE_SPACER_NAME_INTERNAL "None"
*HW_USERINFO_CATALOG_NO ""
*HW_USERINFO_INSTRUMENT_ID ""
*HW_USERINFO_INSTRUMENT_NAME ""
*HW_USERINFO_MODEL ""
*HW_USERINFO_ORDER_NO ""
*HW_USERINFO_SERIAL_NO ""
*HW_USERINFO_VERIFY_INSTRUMENT_ID "00-07-fe-01-22-e6"
*HW_VER_RCD_COUNTER_UNIT "N/A"
*HW_VER_RCD_CPU "3.3.7"
*HW_VER_RCD_FPGA "1.2.3"
*HW_VER_RCD_GONIO_UNIT "6.3.0"
*HW_VER_RCD_INCIDENT_UNIT "6.4.0"
*HW_VER_RCD_RECEIVING_UNIT "8.0.1"
*HW_VER_RCD_TYPE "RINC"
*HW_VER_XGC_CPU "3.3.7"
*HW_VER_XGC_CW "3.0.0"
*HW_VER_XGC_HV "3.0.0"
*HW_VER_XGC_RS1 "3.0.0"
*HW_VER_XGC_RS2 "N/A"
*HW_VER_XGC_RT "N/A"
*HW_VER_XGC_TYPE "RINC"
*HW_XG_CURRENT_UNIT "mA"
*HW_XG_FOCUS "0.4mm x 12mm"
*HW_XG_FOCUS_TYPE "LongFineToshiba"
*HW_XG_TARGET_ATOMIC_NUMBER "29"
*HW_XG_TARGET_NAME "Cu"
*HW_XG_TYPE "Hermetic"
*HW_XG_VOLTAGE_UNIT "kV"
*HW_XG_WAVE_LENGTH_ALPHA1 "1.540593"
*HW_XG_WAVE_LENGTH_ALPHA2 "1.544414"
*HW_XG_WAVE_LENGTH_BETA "1.392246"
*HW_XG_WAVE_LENGTH_UNIT "Angstrom"
*MEAS_COND_AXIS_NAME_INTERNAL-0 "ThetaS"
*MEAS_COND_AXIS_NAME_INTERNAL-1 "ThetaD"
*MEAS_COND_AXIS_NAME_INTERNAL-10 "PrimaryGeometry"
*MEAS_COND_AXIS_NAME_INTERNAL-11 "PrimaryMirrorType"
*MEAS_COND_AXIS_NAME_INTERNAL-12 "CBOType"
*MEAS_COND_AXIS_NAME_INTERNAL-13 "CBO-M"
*MEAS_COND_AXIS_NAME_INTERNAL-14 "CBO"
*MEAS_COND_AXIS_NAME_INTERNAL-15 "IncidentSollerSlit"
*MEAS_COND_AXIS_NAME_INTERNAL-16 "IncidentSlitBox"
*MEAS_COND_AXIS_NAME_INTERNAL-17 "IncidentSlitBox"
*MEAS_COND_AXIS_NAME_INTERNAL-18 "IncidentSlitBox"
*MEAS_COND_AXIS_NAME_INTERNAL-19 "Zs"
*MEAS_COND_AXIS_NAME_INTERNAL-2 "TwoTheta"
*MEAS_COND_AXIS_NAME_INTERNAL-20 "IncidentAxdSlit"
*MEAS_COND_AXIS_NAME_INTERNAL-21 "IncidentAxdSlit"
*MEAS_COND_AXIS_NAME_INTERNAL-22 "IncidentAxdSlit"
*MEAS_COND_AXIS_NAME_INTERNAL-23 "InFilter"
*MEAS_COND_AXIS_NAME_INTERNAL-24 "Z"
*MEAS_COND_AXIS_NAME_INTERNAL-25 "Phi"
*MEAS_COND_AXIS_NAME_INTERNAL-26 "Beta"
*MEAS_COND_AXIS_NAME_INTERNAL-27 "TwoThetaChiPhi"
*MEAS_COND_AXIS_NAME_INTERNAL-28 "AlphaI"
*MEAS_COND_AXIS_NAME_INTERNAL-29 "BetaI"
*MEAS_COND_AXIS_NAME_INTERNAL-3 "Omega"
*MEAS_COND_AXIS_NAME_INTERNAL-30 "TwoThetaB"
*MEAS_COND_AXIS_NAME_INTERNAL-31 "DirectBeamStop"
*MEAS_COND_AXIS_NAME_INTERNAL-32 "KnifeEdge"
*MEAS_COND_AXIS_NAME_INTERNAL-33 "Rx"
*MEAS_COND_AXIS_NAME_INTERNAL-34 "Ry"
*MEAS_COND_AXIS_NAME_INTERNAL-35 "ReceivingSlitBox1"
*MEAS_COND_AXIS_NAME_INTERNAL-36 "ReceivingSlitBox1"
*MEAS_COND_AXIS_NAME_INTERNAL-37 "ReceivingSlitBox1"
*MEAS_COND_AXIS_NAME_INTERNAL-38 "Zr"
*MEAS_COND_AXIS_NAME_INTERNAL-39 "Filter"
*MEAS_COND_AXIS_NAME_INTERNAL-4 "TwoThetaTheta"
*MEAS_COND_AXIS_NAME_INTERNAL-40 "PSA"
*MEAS_COND_AXIS_NAME_INTERNAL-41 "ReceivingSollerSlit"
*MEAS_COND_AXIS_NAME_INTERNAL-42 "ReceivingSlitBox2"
*MEAS_COND_AXIS_NAME_INTERNAL-43 "ReceivingSlitBox2"
*MEAS_COND_AXIS_NAME_INTERNAL-44 "ReceivingSlitBox2"
*MEAS_COND_AXIS_NAME_INTERNAL-45 "Attenuator"
*MEAS_COND_AXIS_NAME_INTERNAL-46 "PHA"
*MEAS_COND_AXIS_NAME_INTERNAL-47 "DedicatedHolder"
*MEAS_COND_AXIS_NAME_INTERNAL-48 "Target_TargetTime"
*MEAS_COND_AXIS_NAME_INTERNAL-49 "Target_XrayOnTime"
*MEAS_COND_AXIS_NAME_INTERNAL-5 "TwoThetaOmega"
*MEAS_COND_AXIS_NAME_INTERNAL-50 "Target_TMPTime"
*MEAS_COND_AXIS_NAME_INTERNAL-51 "Target_RPTime"
*MEAS_COND_AXIS_NAME_INTERNAL-52 "Target_FilamentTime"
*MEAS_COND_AXIS_NAME_INTERNAL-53 "Target_IG"
*MEAS_COND_AXIS_NAME_INTERNAL-54 "Target_GP"
*MEAS_COND_AXIS_NAME_INTERNAL-55 "Target_FC"
*MEAS_COND_AXIS_NAME_INTERNAL-56 "HVPS_HVPSTime"
*MEAS_COND_AXIS_NAME_INTERNAL-57 "HVPS_Type1Time"
*MEAS_COND_AXIS_NAME_INTERNAL-58 "HVPS_Type2Time"
*MEAS_COND_AXIS_NAME_INTERNAL-59 "HVPS_Type3Time"
*MEAS_COND_AXIS_NAME_INTERNAL-6 "OmegaTwoTheta"
*MEAS_COND_AXIS_NAME_INTERNAL-60 "CW_IERTime"
*MEAS_COND_AXIS_NAME_INTERNAL-61 "CW_ECTime"
*MEAS_COND_AXIS_NAME_INTERNAL-62 "CW_Flow1"
*MEAS_COND_AXIS_NAME_INTERNAL-63 "CW_Temperature1"
*MEAS_COND_AXIS_NAME_INTERNAL-64 "CW_Pressure1"
*MEAS_COND_AXIS_NAME_INTERNAL-65 "CW_PressureIn"
*MEAS_COND_AXIS_NAME_INTERNAL-66 "CW_PressureOut"
*MEAS_COND_AXIS_NAME_INTERNAL-67 "CW_Flow2"
*MEAS_COND_AXIS_NAME_INTERNAL-68 "CW_Temperature2"
*MEAS_COND_AXIS_NAME_INTERNAL-69 "CW_Pressure2"
*MEAS_COND_AXIS_NAME_INTERNAL-7 "TwoThetaChi"
*MEAS_COND_AXIS_NAME_INTERNAL-70 "RE_EnclosureTemp"
*MEAS_COND_AXIS_NAME_INTERNAL-71 "RE_EnclosureHummidity"
*MEAS_COND_AXIS_NAME_INTERNAL-72 "RE_CabinetTemp"
*MEAS_COND_AXIS_NAME_INTERNAL-73 "RE_RPTemp"
*MEAS_COND_AXIS_NAME_INTERNAL-74 "RE_ShutterAXrayOnTime"
*MEAS_COND_AXIS_NAME_INTERNAL-75 "RE_ShutterATimes"
*MEAS_COND_AXIS_NAME_INTERNAL-76 "RE_ShutterAOpenCloseTime"
*MEAS_COND_AXIS_NAME_INTERNAL-77 "RE_ShutterACloseOpenTime"
*MEAS_COND_AXIS_NAME_INTERNAL-78 "RE_ShutterBXrayOnTime"
*MEAS_COND_AXIS_NAME_INTERNAL-79 "RE_ShutterBTimes"
*MEAS_COND_AXIS_NAME_INTERNAL-8 "Ts"
*MEAS_COND_AXIS_NAME_INTERNAL-80 "RE_ShutterBOpenCloseTime"
*MEAS_COND_AXIS_NAME_INTERNAL-81 "RE_ShutterBCloseOpenTime"
*MEAS_COND_AXIS_NAME_INTERNAL-82 "RE_XrayWarningRamp"
*MEAS_COND_AXIS_NAME_INTERNAL-83 "RE_ShutterAInstallation"
*MEAS_COND_AXIS_NAME_INTERNAL-84 "RE_ShutterARamp"
*MEAS_COND_AXIS_NAME_INTERNAL-85 "RE_ShutterBInstallation"
*MEAS_COND_AXIS_NAME_INTERNAL-86 "RE_ShutterBRamp"
*MEAS_COND_AXIS_NAME_INTERNAL-87 "RE_ExtShutterCLS"
*MEAS_COND_AXIS_NAME_INTERNAL-88 "RE_ExtXrayOFF"
*MEAS_COND_AXIS_NAME_INTERNAL-89 "RE_ExtSafetyCircuit"
*MEAS_COND_AXIS_NAME_INTERNAL-9 "Ma"
*MEAS_COND_AXIS_NAME_INTERNAL-90 "Version_CPU"
*MEAS_COND_AXIS_NAME_INTERNAL-91 "Version_RS1"
*MEAS_COND_AXIS_NAME_INTERNAL-92 "Version_RS2"
*MEAS_COND_AXIS_NAME_INTERNAL-93 "Version_HV"
*MEAS_COND_AXIS_NAME_INTERNAL-94 "Version_CW"
*MEAS_COND_AXIS_NAME_INTERNAL-95 "Version_RT"
*MEAS_COND_AXIS_NAME_INTERNAL-96 "IncidentPrimary"
*MEAS_COND_AXIS_NAME_INTERNAL-97 "IncidentMonochromator"
*MEAS_COND_AXIS_NAME_INTERNAL-98 "ReceivingOptics"
*MEAS_COND_AXIS_NAME_INTERNAL-99 "CounterMonochromatorKind"
*MEAS_COND_AXIS_NAME-0 "ThetaS"
*MEAS_COND_AXIS_NAME-1 "ThetaD"
*MEAS_COND_AXIS_NAME-10 "PrimaryGeometry"
*MEAS_COND_AXIS_NAME-11 "PrimaryMirrorType"
*MEAS_COND_AXIS_NAME-12 "CBOType"
*MEAS_COND_AXIS_NAME-13 "CBO-M"
*MEAS_COND_AXIS_NAME-14 "CBO"
*MEAS_COND_AXIS_NAME-15 "IncidentSollerSlit"
*MEAS_COND_AXIS_NAME-16 "IncidentSlitBox"
*MEAS_COND_AXIS_NAME-17 "IncidentSlitBox-_Axis"
*MEAS_COND_AXIS_NAME-18 "SlitDS"
*MEAS_COND_AXIS_NAME-19 "Zs"
*MEAS_COND_AXIS_NAME-2 "TwoTheta"
*MEAS_COND_AXIS_NAME-20 "IncidentAxdSlit"
*MEAS_COND_AXIS_NAME-21 "LLS"
*MEAS_COND_AXIS_NAME-22 "DHLSlit"
*MEAS_COND_AXIS_NAME-23 "InFilter"
*MEAS_COND_AXIS_NAME-24 "Z"
*MEAS_COND_AXIS_NAME-25 "Phi"
*MEAS_COND_AXIS_NAME-26 "Beta"
*MEAS_COND_AXIS_NAME-27 "TwoThetaChiPhi"
*MEAS_COND_AXIS_NAME-28 "AlphaI"
*MEAS_COND_AXIS_NAME-29 "BetaI"
*MEAS_COND_AXIS_NAME-3 "Omega"
*MEAS_COND_AXIS_NAME-30 "TwoThetaB"
*MEAS_COND_AXIS_NAME-31 "DirectBeamStop"
*MEAS_COND_AXIS_NAME-32 "KnifeEdge"
*MEAS_COND_AXIS_NAME-33 "Rx"
*MEAS_COND_AXIS_NAME-34 "Ry"
*MEAS_COND_AXIS_NAME-35 "ReceivingSlitBox1"
*MEAS_COND_AXIS_NAME-36 "ReceivingSlitBox1-_Axis"
*MEAS_COND_AXIS_NAME-37 "SlitSS"
*MEAS_COND_AXIS_NAME-38 "Zr"
*MEAS_COND_AXIS_NAME-39 "Filter"
*MEAS_COND_AXIS_NAME-4 "TwoThetaTheta"
*MEAS_COND_AXIS_NAME-40 "PSA"
*MEAS_COND_AXIS_NAME-41 "ReceivingSollerSlit"
*MEAS_COND_AXIS_NAME-42 "ReceivingSlitBox2"
*MEAS_COND_AXIS_NAME-43 "ReceivingSlitBox2-_Axis"
*MEAS_COND_AXIS_NAME-44 "SlitRS"
*MEAS_COND_AXIS_NAME-45 "Attenuator"
*MEAS_COND_AXIS_NAME-46 "PHA"
*MEAS_COND_AXIS_NAME-47 "DedicatedHolder"
*MEAS_COND_AXIS_NAME-48 "Target_TargetTime"
*MEAS_COND_AXIS_NAME-49 "Target_XrayOnTime"
*MEAS_COND_AXIS_NAME-5 "TwoThetaOmega"
*MEAS_COND_AXIS_NAME-50 "Target_TMPTime"
*MEAS_COND_AXIS_NAME-51 "Target_RPTime"
*MEAS_COND_AXIS_NAME-52 "Target_FilamentTime"
*MEAS_COND_AXIS_NAME-53 "Target_IG"
*MEAS_COND_AXIS_NAME-54 "Target_GP"
*MEAS_COND_AXIS_NAME-55 "Target_FC"
*MEAS_COND_AXIS_NAME-56 "HVPS_HVPSTime"
*MEAS_COND_AXIS_NAME-57 "HVPS_Type1Time"
*MEAS_COND_AXIS_NAME-58 "HVPS_Type2Time"
*MEAS_COND_AXIS_NAME-59 "HVPS_Type3Time"
*MEAS_COND_AXIS_NAME-6 "OmegaTwoTheta"
*MEAS_COND_AXIS_NAME-60 "CW_IERTime"
*MEAS_COND_AXIS_NAME-61 "CW_ECTime"
*MEAS_COND_AXIS_NAME-62 "CW_Flow1"
*MEAS_COND_AXIS_NAME-63 "CW_Temperature1"
*MEAS_COND_AXIS_NAME-64 "CW_Pressure1"
*MEAS_COND_AXIS_NAME-65 "CW_PressureIn"
*MEAS_COND_AXIS_NAME-66 "CW_PressureOut"
*MEAS_COND_AXIS_NAME-67 "CW_Flow2"
*MEAS_COND_AXIS_NAME-68 "CW_Temperature2"
*MEAS_COND_AXIS_NAME-69 "CW_Pressure2"
*MEAS_COND_AXIS_NAME-7 "TwoThetaChi"
*MEAS_COND_AXIS_NAME-70 "RE_EnclosureTemp"
*MEAS_COND_AXIS_NAME-71 "RE_EnclosureHummidity"
*MEAS_COND_AXIS_NAME-72 "RE_CabinetTemp"
*MEAS_COND_AXIS_NAME-73 "RE_RPTemp"
*MEAS_COND_AXIS_NAME-74 "RE_ShutterAXrayOnTime"
*MEAS_COND_AXIS_NAME-75 "RE_ShutterATimes"
*MEAS_COND_AXIS_NAME-76 "RE_ShutterAOpenCloseTime"
*MEAS_COND_AXIS_NAME-77 "RE_ShutterACloseOpenTime"
*MEAS_COND_AXIS_NAME-78 "RE_ShutterBXrayOnTime"
*MEAS_COND_AXIS_NAME-79 "RE_ShutterBTimes"
*MEAS_COND_AXIS_NAME-8 "Ts"
*MEAS_COND_AXIS_NAME-80 "RE_ShutterBOpenCloseTime"
*MEAS_COND_AXIS_NAME-81 "RE_ShutterBCloseOpenTime"
*MEAS_COND_AXIS_NAME-82 "RE_XrayWarningRamp"
*MEAS_COND_AXIS_NAME-83 "RE_ShutterAInstallation"
*MEAS_COND_AXIS_NAME-84 "RE_ShutterARamp"
*MEAS_COND_AXIS_NAME-85 "RE_ShutterBInstallation"
*MEAS_COND_AXIS_NAME-86 "RE_ShutterBRamp"
*MEAS_COND_AXIS_NAME-87 "RE_ExtShutterCLS"
*MEAS_COND_AXIS_NAME-88 "RE_ExtXrayOFF"
*MEAS_COND_AXIS_NAME-89 "RE_ExtSafetyCircuit"
*MEAS_COND_AXIS_NAME-9 "Ma"
*MEAS_COND_AXIS_NAME-90 "Version_CPU"
*MEAS_COND_AXIS_NAME-91 "Version_RS1"
*MEAS_COND_AXIS_NAME-92 "Version_RS2"
*MEAS_COND_AXIS_NAME-93 "Version_HV"
*MEAS_COND_AXIS_NAME-94 "Version_CW"
*MEAS_COND_AXIS_NAME-95 "Version_RT"
*MEAS_COND_AXIS_NAME-96 "IncidentPrimary"
*MEAS_COND_AXIS_NAME-97 "IncidentMonochromator"
*MEAS_COND_AXIS_NAME-98 "ReceivingOptics"
*MEAS_COND_AXIS_NAME-99 "CounterMonochromatorKind"
*MEAS_COND_AXIS_OFFSET-0 "0.5564"
*MEAS_COND_AXIS_OFFSET-1 "0.1707"
*MEAS_COND_AXIS_OFFSET-10 "0"
*MEAS_COND_AXIS_OFFSET-11 "0"
*MEAS_COND_AXIS_OFFSET-12 "0"
*MEAS_COND_AXIS_OFFSET-13 "0"
*MEAS_COND_AXIS_OFFSET-14 "0"
*MEAS_COND_AXIS_OFFSET-15 "0"
*MEAS_COND_AXIS_OFFSET-16 "0"
*MEAS_COND_AXIS_OFFSET-17 "0"
*MEAS_COND_AXIS_OFFSET-18 "0"
*MEAS_COND_AXIS_OFFSET-19 "0"
*MEAS_COND_AXIS_OFFSET-2 "0.7271"
*MEAS_COND_AXIS_OFFSET-20 "0"
*MEAS_COND_AXIS_OFFSET-21 "0"
*MEAS_COND_AXIS_OFFSET-22 "0"
*MEAS_COND_AXIS_OFFSET-23 "0"
*MEAS_COND_AXIS_OFFSET-24 "0"
*MEAS_COND_AXIS_OFFSET-25 "0"
*MEAS_COND_AXIS_OFFSET-26 "0"
*MEAS_COND_AXIS_OFFSET-27 "0"
*MEAS_COND_AXIS_OFFSET-28 "0"
*MEAS_COND_AXIS_OFFSET-29 "0"
*MEAS_COND_AXIS_OFFSET-3 "0.5564"
*MEAS_COND_AXIS_OFFSET-30 "0"
*MEAS_COND_AXIS_OFFSET-31 "0"
*MEAS_COND_AXIS_OFFSET-32 "0"
*MEAS_COND_AXIS_OFFSET-33 "0"
*MEAS_COND_AXIS_OFFSET-34 "0"
*MEAS_COND_AXIS_OFFSET-35 "0"
*MEAS_COND_AXIS_OFFSET-36 "0"
*MEAS_COND_AXIS_OFFSET-37 "0"
*MEAS_COND_AXIS_OFFSET-38 "0"
*MEAS_COND_AXIS_OFFSET-39 "0"
*MEAS_COND_AXIS_OFFSET-4 "0"
*MEAS_COND_AXIS_OFFSET-40 "0"
*MEAS_COND_AXIS_OFFSET-41 "0"
*MEAS_COND_AXIS_OFFSET-42 "0"
*MEAS_COND_AXIS_OFFSET-43 "0"
*MEAS_COND_AXIS_OFFSET-44 "0"
*MEAS_COND_AXIS_OFFSET-45 "0"
*MEAS_COND_AXIS_OFFSET-46 "0"
*MEAS_COND_AXIS_OFFSET-47 "0"
*MEAS_COND_AXIS_OFFSET-48 "0"
*MEAS_COND_AXIS_OFFSET-49 "0"
*MEAS_COND_AXIS_OFFSET-5 "0"
*MEAS_COND_AXIS_OFFSET-50 "0"
*MEAS_COND_AXIS_OFFSET-51 "0"
*MEAS_COND_AXIS_OFFSET-52 "0"
*MEAS_COND_AXIS_OFFSET-53 "0"
*MEAS_COND_AXIS_OFFSET-54 "0"
*MEAS_COND_AXIS_OFFSET-55 "0"
*MEAS_COND_AXIS_OFFSET-56 "0"
*MEAS_COND_AXIS_OFFSET-57 "0"
*MEAS_COND_AXIS_OFFSET-58 "0"
*MEAS_COND_AXIS_OFFSET-59 "0"
*MEAS_COND_AXIS_OFFSET-6 "0"
*MEAS_COND_AXIS_OFFSET-60 "0"
*MEAS_COND_AXIS_OFFSET-61 "0"
*MEAS_COND_AXIS_OFFSET-62 "0"
*MEAS_COND_AXIS_OFFSET-63 "0"
*MEAS_COND_AXIS_OFFSET-64 "0"
*MEAS_COND_AXIS_OFFSET-65 "0"
*MEAS_COND_AXIS_OFFSET-66 "0"
*MEAS_COND_AXIS_OFFSET-67 "0"
*MEAS_COND_AXIS_OFFSET-68 "0"
*MEAS_COND_AXIS_OFFSET-69 "0"
*MEAS_COND_AXIS_OFFSET-7 "0"
*MEAS_COND_AXIS_OFFSET-70 "0"
*MEAS_COND_AXIS_OFFSET-71 "0"
*MEAS_COND_AXIS_OFFSET-72 "0"
*MEAS_COND_AXIS_OFFSET-73 "0"
*MEAS_COND_AXIS_OFFSET-74 "0"
*MEAS_COND_AXIS_OFFSET-75 "0"
*MEAS_COND_AXIS_OFFSET-76 "0"
*MEAS_COND_AXIS_OFFSET-77 "0"
*MEAS_COND_AXIS_OFFSET-78 "0"
*MEAS_COND_AXIS_OFFSET-79 "0"
*MEAS_COND_AXIS_OFFSET-8 "0"
*MEAS_COND_AXIS_OFFSET-80 "0"
*MEAS_COND_AXIS_OFFSET-81 "0"
*MEAS_COND_AXIS_OFFSET-82 "0"
*MEAS_COND_AXIS_OFFSET-83 "0"
*MEAS_COND_AXIS_OFFSET-84 "0"
*MEAS_COND_AXIS_OFFSET-85 "0"
*MEAS_COND_AXIS_OFFSET-86 "0"
*MEAS_COND_AXIS_OFFSET-87 "0"
*MEAS_COND_AXIS_OFFSET-88 "0"
*MEAS_COND_AXIS_OFFSET-89 "0"
*MEAS_COND_AXIS_OFFSET-9 "0"
*MEAS_COND_AXIS_OFFSET-90 "0"
*MEAS_COND_AXIS_OFFSET-91 "0"
*MEAS_COND_AXIS_OFFSET-92 "0"
*MEAS_COND_AXIS_OFFSET-93 "0"
*MEAS_COND_AXIS_OFFSET-94 "0"
*MEAS_COND_AXIS_OFFSET-95 "0"
*MEAS_COND_AXIS_OFFSET-96 "0"
*MEAS_COND_AXIS_OFFSET-97 "0"
*MEAS_COND_AXIS_OFFSET-98 "0"
*MEAS_COND_AXIS_OFFSET-99 "0"
*MEAS_COND_AXIS_POSITION-0 "0.0000"
*MEAS_COND_AXIS_POSITION-1 "0.0000"
*MEAS_COND_AXIS_POSITION-10 "Left"
*MEAS_COND_AXIS_POSITION-11 "Ka1"
*MEAS_COND_AXIS_POSITION-12 "Type2"
*MEAS_COND_AXIS_POSITION-13 "0"
*MEAS_COND_AXIS_POSITION-14 "BB"
*MEAS_COND_AXIS_POSITION-15 "Soller_slit_2.5deg"
*MEAS_COND_AXIS_POSITION-16 "1/2deg"
*MEAS_COND_AXIS_POSITION-17 "1.514375"
*MEAS_COND_AXIS_POSITION-18 "1/2deg"
*MEAS_COND_AXIS_POSITION-19 "0.7268750"
*MEAS_COND_AXIS_POSITION-2 "0.0000"
*MEAS_COND_AXIS_POSITION-20 "10mm"
*MEAS_COND_AXIS_POSITION-21 "10mm"
*MEAS_COND_AXIS_POSITION-22 "10mm"
*MEAS_COND_AXIS_POSITION-23 "None"
*MEAS_COND_AXIS_POSITION-24 "0.01228"
*MEAS_COND_AXIS_POSITION-25 "0.000"
*MEAS_COND_AXIS_POSITION-26 "0.000"
*MEAS_COND_AXIS_POSITION-27 "0.000"
*MEAS_COND_AXIS_POSITION-28 "90.00"
*MEAS_COND_AXIS_POSITION-29 "0.000"
*MEAS_COND_AXIS_POSITION-3 "0.0000"
*MEAS_COND_AXIS_POSITION-30 "0.0000"
*MEAS_COND_AXIS_POSITION-31 "None"
*MEAS_COND_AXIS_POSITION-32 "None"
*MEAS_COND_AXIS_POSITION-33 "0.00000"
*MEAS_COND_AXIS_POSITION-34 "0.00000"
*MEAS_COND_AXIS_POSITION-35 "Open"
*MEAS_COND_AXIS_POSITION-36 "20.000000"
*MEAS_COND_AXIS_POSITION-37 "Open"
*MEAS_COND_AXIS_POSITION-38 "-0.2390625"
*MEAS_COND_AXIS_POSITION-39 "None"
*MEAS_COND_AXIS_POSITION-4 "0.0000"
*MEAS_COND_AXIS_POSITION-40 "PSA_open"
*MEAS_COND_AXIS_POSITION-41 "Soller_slit_2.5deg"
*MEAS_COND_AXIS_POSITION-42 "Open"
*MEAS_COND_AXIS_POSITION-43 "0.000"
*MEAS_COND_AXIS_POSITION-44 "Open"
*MEAS_COND_AXIS_POSITION-45 "Open"
*MEAS_COND_AXIS_POSITION-46 "36"
*MEAS_COND_AXIS_POSITION-47 "None"
*MEAS_COND_AXIS_POSITION-5 "0.0000"
*MEAS_COND_AXIS_POSITION-6 "0.0000"
*MEAS_COND_AXIS_POSITION-7 "0.0000"
*MEAS_COND_AXIS_POSITION-8 "-4.0000000"
*MEAS_COND_AXIS_POSITION-9 "0"
*MEAS_COND_AXIS_POSITION-96 "PrimaryUnit"
*MEAS_COND_AXIS_POSITION-97 "IPS_adaptor"
*MEAS_COND_AXIS_POSITION-98 "PSA_open"
*MEAS_COND_AXIS_POSITION-99 "None"
*MEAS_COND_AXIS_UNIT-0 "deg"
*MEAS_COND_AXIS_UNIT-1 "deg"
*MEAS_COND_AXIS_UNIT-10 ""
*MEAS_COND_AXIS_UNIT-11 ""
*MEAS_COND_AXIS_UNIT-12 ""
*MEAS_COND_AXIS_UNIT-13 "pulse"
*MEAS_COND_AXIS_UNIT-14 ""
*MEAS_COND_AXIS_UNIT-15 ""
*MEAS_COND_AXIS_UNIT-16 ""
*MEAS_COND_AXIS_UNIT-17 "mm"
*MEAS_COND_AXIS_UNIT-18 ""
*MEAS_COND_AXIS_UNIT-19 "mm"
*MEAS_COND_AXIS_UNIT-2 "deg"
*MEAS_COND_AXIS_UNIT-20 ""
*MEAS_COND_AXIS_UNIT-21 ""
*MEAS_COND_AXIS_UNIT-22 ""
*MEAS_COND_AXIS_UNIT-23 ""
*MEAS_COND_AXIS_UNIT-24 "mm"
*MEAS_COND_AXIS_UNIT-25 "deg"
*MEAS_COND_AXIS_UNIT-26 "deg"
*MEAS_COND_AXIS_UNIT-27 "deg"
*MEAS_COND_AXIS_UNIT-28 "deg"
*MEAS_COND_AXIS_UNIT-29 "deg"
*MEAS_COND_AXIS_UNIT-3 "deg"
*MEAS_COND_AXIS_UNIT-30 "deg"
*MEAS_COND_AXIS_UNIT-31 ""
*MEAS_COND_AXIS_UNIT-32 ""
*MEAS_COND_AXIS_UNIT-33 "deg"
*MEAS_COND_AXIS_UNIT-34 "deg"
*MEAS_COND_AXIS_UNIT-35 ""
*MEAS_COND_AXIS_UNIT-36 "mm"
*MEAS_COND_AXIS_UNIT-37 ""
*MEAS_COND_AXIS_UNIT-38 "mm"
*MEAS_COND_AXIS_UNIT-39 ""
*MEAS_COND_AXIS_UNIT-4 "deg"
*MEAS_COND_AXIS_UNIT-40 ""
*MEAS_COND_AXIS_UNIT-41 ""
*MEAS_COND_AXIS_UNIT-42 ""
*MEAS_COND_AXIS_UNIT-43 "mm"
*MEAS_COND_AXIS_UNIT-44 ""
*MEAS_COND_AXIS_UNIT-45 ""
*MEAS_COND_AXIS_UNIT-46 "div"
*MEAS_COND_AXIS_UNIT-47 ""
*MEAS_COND_AXIS_UNIT-48 "H"
*MEAS_COND_AXIS_UNIT-49 "H"
*MEAS_COND_AXIS_UNIT-5 "deg"
*MEAS_COND_AXIS_UNIT-50 "H"
*MEAS_COND_AXIS_UNIT-51 "H"
*MEAS_COND_AXIS_UNIT-52 "H"
*MEAS_COND_AXIS_UNIT-53 "mV"
*MEAS_COND_AXIS_UNIT-54 "V"
*MEAS_COND_AXIS_UNIT-55 "V"
*MEAS_COND_AXIS_UNIT-56 "H"
*MEAS_COND_AXIS_UNIT-57 "H"
*MEAS_COND_AXIS_UNIT-58 "H"
*MEAS_COND_AXIS_UNIT-59 "H"
*MEAS_COND_AXIS_UNIT-6 "deg"
*MEAS_COND_AXIS_UNIT-60 "H"
*MEAS_COND_AXIS_UNIT-61 "uS/m"
*MEAS_COND_AXIS_UNIT-62 "L/min"
*MEAS_COND_AXIS_UNIT-63 "degree"
*MEAS_COND_AXIS_UNIT-64 "MPa"
*MEAS_COND_AXIS_UNIT-65 "MPa"
*MEAS_COND_AXIS_UNIT-66 "MPa"
*MEAS_COND_AXIS_UNIT-67 "L/min"
*MEAS_COND_AXIS_UNIT-68 "C"
*MEAS_COND_AXIS_UNIT-69 "MPa"
*MEAS_COND_AXIS_UNIT-7 "deg"
*MEAS_COND_AXIS_UNIT-70 "degree"
*MEAS_COND_AXIS_UNIT-71 "percent"
*MEAS_COND_AXIS_UNIT-72 "degree"
*MEAS_COND_AXIS_UNIT-73 "C"
*MEAS_COND_AXIS_UNIT-74 "H"
*MEAS_COND_AXIS_UNIT-75 "time"
*MEAS_COND_AXIS_UNIT-76 "msec"
*MEAS_COND_AXIS_UNIT-77 "msec"
*MEAS_COND_AXIS_UNIT-78 "H"
*MEAS_COND_AXIS_UNIT-79 "times"
*MEAS_COND_AXIS_UNIT-8 "mm"
*MEAS_COND_AXIS_UNIT-80 "msec"
*MEAS_COND_AXIS_UNIT-81 "msec"
*MEAS_COND_AXIS_UNIT-82 "-"
*MEAS_COND_AXIS_UNIT-83 "-"
*MEAS_COND_AXIS_UNIT-84 "-"
*MEAS_COND_AXIS_UNIT-85 ""
*MEAS_COND_AXIS_UNIT-86 "-"
*MEAS_COND_AXIS_UNIT-87 "-"
*MEAS_COND_AXIS_UNIT-88 "-"
*MEAS_COND_AXIS_UNIT-89 ""
*MEAS_COND_AXIS_UNIT-9 "pulse"
*MEAS_COND_AXIS_UNIT-90 ""
*MEAS_COND_AXIS_UNIT-91 ""
*MEAS_COND_AXIS_UNIT-92 ""
*MEAS_COND_AXIS_UNIT-93 ""
*MEAS_COND_AXIS_UNIT-94 ""
*MEAS_COND_AXIS_UNIT-95 ""
*MEAS_COND_AXIS_UNIT-96 ""
*MEAS_COND_AXIS_UNIT-97 ""
*MEAS_COND_AXIS_UNIT-98 ""
*MEAS_COND_AXIS_UNIT-99 ""
*MEAS_COND_OPT_ATTR "BB"
*MEAS_COND_OPT_NAME ""
*MEAS_COND_XG_CURRENT "50"
*MEAS_COND_XG_VOLTAGE "40"
*MEAS_COND_XG_WAVE_TYPE "Ka1"
*MEAS_DATA_COUNT "8001"
*MEAS_SCAN_AXIS_X "TwoThetaTheta"
*MEAS_SCAN_AXIS_X_INTERNAL "TwoThetaTheta"
*MEAS_SCAN_END_TIME "11/03/2020 16:41:41"
*MEAS_SCAN_MODE "CONTINUOUS"
*MEAS_SCAN_MODE_INTERNAL "TDI_1D"
*MEAS_SCAN_RESOLUTION_X "0.0002"
*MEAS_SCAN_SPEED "3.0000"
*MEAS_SCAN_SPEED_UNIT "deg/min"
*MEAS_SCAN_START "20.0000"
*MEAS_SCAN_START_TIME "11/03/2020 16:13:27"
*MEAS_SCAN_STEP "0.0100"
*MEAS_SCAN_STOP "100.0000"
*MEAS_SCAN_UNEQUALY_SPACED "False"
*MEAS_SCAN_UNIT_X "deg"
*MEAS_SCAN_UNIT_Y "cps"
#Intensity_unit=cps
#Attenuator_coefficient=1.0000
20.0000 60.0000
20.0100 100.0000
20.0200 65.0000
20.0300 90.0000
20.0400 120.0000
20.0500 125.0000
20.0600 115.0000
20.0700 180.0000
20.0800 230.0000
20.0900 245.0000
20.1000 295.0000
20.1100 545.0000
20.1200 640.0000
20.1300 800.0000
20.1400 865.0000
20.1500 945.0000
20.1600 1095.0000
20.1700 590.0000
20.1800 345.0000
20.1900 185.0000
20.2000 155.0000
20.2100 110.0000
20.2200 105.0000
20.2300 145.0000
20.2400 115.0000
20.2500 80.0000
20.2600 90.0000
20.2700 85.0000
20.2800 60.0000
20.2900 65.0000
20.3000 100.0000
20.3100 100.0000
20.3200 65.0000
20.3300 45.0000
20.3400 75.0000
20.3500 95.0000
20.3600 85.0000
20.3700 130.0000
20.3800 85.0000
20.3900 85.0000
20.4000 85.0000
20.4100 80.0000
20.4200 70.0000
20.4300 50.0000
20.4400 110.0000
20.4500 80.0000
20.4600 95.0000
20.4700 105.0000
20.4800 70.0000
20.4900 90.0000
20.5000 65.0000
20.5100 55.0000
20.5200 75.0000
20.5300 75.0000
20.5400 105.0000
20.5500 85.0000
20.5600 50.0000
20.5700 95.0000
20.5800 50.0000
20.5900 130.0000
20.6000 105.0000
20.6100 105.0000
20.6200 80.0000
20.6300 85.0000
20.6400 100.0000
20.6500 100.0000
20.6600 75.0000
20.6700 75.0000
20.6800 100.0000
20.6900 115.0000
20.7000 90.0000
20.7100 85.0000
20.7200 120.0000
20.7300 85.0000
20.7400 60.0000
20.7500 60.0000
20.7600 75.0000
20.7700 95.0000
20.7800 115.0000
20.7900 100.0000
20.8000 75.0000
20.8100 80.0000
20.8200 90.0000
20.8300 90.0000
20.8400 55.0000
20.8500 70.0000
20.8600 65.0000
20.8700 70.0000
20.8800 75.0000
20.8900 90.0000
20.9000 95.0000
20.9100 115.0000
20.9200 70.0000
20.9300 80.0000
20.9400 100.0000
20.9500 65.0000
20.9600 75.0000
20.9700 90.0000
20.9800 120.0000
20.9900 140.0000
21.0000 250.0000
21.0100 345.0000
21.0200 580.0000
21.0300 705.0000
21.0400 675.0000
21.0500 645.0000
21.0600 535.0000
21.0700 290.0000
21.0800 305.0000
21.0900 305.0000
21.1000 235.0000
21.1100 125.0000
21.1200 100.0000
21.1300 90.0000
21.1400 55.0000
21.1500 90.0000
21.1600 130.0000
21.1700 75.0000
21.1800 55.0000
21.1900 95.0000
21.2000 100.0000
21.2100 100.0000
21.2200 95.0000
21.2300 155.0000
21.2400 100.0000
21.2500 75.0000
21.2600 115.0000
21.2700 70.0000
21.2800 105.0000
21.2900 65.0000
21.3000 55.0000
21.3100 55.0000
21.3200 70.0000
21.3300 90.0000
21.3400 100.0000
21.3500 60.0000
21.3600 80.0000
21.3700 55.0000
21.3800 65.0000
21.3900 60.0000
21.4000 70.0000
21.4100 60.0000
21.4200 55.0000
21.4300 75.0000
21.4400 80.0000
21.4500 65.0000
21.4600 60.0000
21.4700 70.0000
21.4800 55.0000
21.4900 80.0000
21.5000 90.0000
21.5100 70.0000
21.5200 65.0000
21.5300 90.0000
21.5400 80.0000
21.5500 85.0000
21.5600 75.0000
21.5700 95.0000
21.5800 75.0000
21.5900 50.0000
21.6000 40.0000
21.6100 75.0000
21.6200 70.0000
21.6300 85.0000
21.6400 70.0000
21.6500 70.0000
21.6600 75.0000
21.6700 95.0000
21.6800 60.0000
21.6900 75.0000
21.7000 45.0000
21.7100 55.0000
21.7200 90.0000
21.7300 75.0000
21.7400 55.0000
21.7500 35.0000
21.7600 60.0000
21.7700 60.0000
21.7800 80.0000
21.7900 70.0000
21.8000 80.0000
21.8100 85.0000
21.8200 110.0000
21.8300 55.0000
21.8400 90.0000
21.8500 75.0000
21.8600 100.0000
21.8700 70.0000
21.8800 95.0000
21.8900 60.0000
21.9000 50.0000
21.9100 60.0000
21.9200 95.0000
21.9300 75.0000
21.9400 70.0000
21.9500 80.0000
21.9600 80.0000
21.9700 55.0000
21.9800 50.0000
21.9900 65.0000
22.0000 50.0000
22.0100 60.0000
22.0200 65.0000
22.0300 65.0000
22.0400 60.0000
22.0500 45.0000
22.0600 60.0000
22.0700 40.0000
22.0800 65.0000
22.0900 115.0000
22.1000 70.0000
22.1100 60.0000
22.1200 100.0000
22.1300 105.0000
22.1400 50.0000
22.1500 25.0000
22.1600 50.0000
22.1700 75.0000
22.1800 45.0000
22.1900 75.0000
22.2000 75.0000
22.2100 60.0000
22.2200 30.0000
22.2300 40.0000
22.2400 80.0000
22.2500 50.0000
22.2600 60.0000
22.2700 65.0000
22.2800 45.0000
22.2900 50.0000
22.3000 65.0000
22.3100 85.0000
22.3200 50.0000
22.3300 65.0000
22.3400 75.0000
22.3500 75.0000
22.3600 60.0000
22.3700 50.0000
22.3800 55.0000
22.3900 70.0000
22.4000 40.0000
22.4100 80.0000
22.4200 30.0000
22.4300 75.0000
22.4400 100.0000
22.4500 75.0000
22.4600 105.0000
22.4700 75.0000
22.4800 100.0000
22.4900 65.0000
22.5000 50.0000
22.5100 50.0000
22.5200 55.0000
22.5300 60.0000
22.5400 45.0000
22.5500 75.0000
22.5600 65.0000
22.5700 80.0000
22.5800 50.0000
22.5900 85.0000
22.6000 45.0000
22.6100 70.0000
22.6200 40.0000
22.6300 45.0000
22.6400 65.0000
22.6500 80.0000
22.6600 60.0000
22.6700 65.0000
22.6800 60.0000
22.6900 75.0000
22.7000 50.0000
22.7100 50.0000
22.7200 70.0000
22.7300 40.0000
22.7400 85.0000
22.7500 75.0000
22.7600 60.0000
22.7700 50.0000
22.7800 60.0000
22.7900 50.0000
22.8000 60.0000
22.8100 65.0000
22.8200 90.0000
22.8300 75.0000
22.8400 85.0000
22.8500 65.0000
22.8600 75.0000
22.8700 65.0000
22.8800 75.0000
22.8900 90.0000
22.9000 70.0000
22.9100 75.0000
22.9200 70.0000
22.9300 65.0000
22.9400 70.0000
22.9500 70.0000
22.9600 55.0000
22.9700 70.0000
22.9800 50.0000
22.9900 75.0000
23.0000 100.0000
23.0100 75.0000
23.0200 65.0000
23.0300 60.0000
23.0400 50.0000
23.0500 70.0000
23.0600 55.0000
23.0700 95.0000
23.0800 55.0000
23.0900 90.0000
23.1000 60.0000
23.1100 65.0000
23.1200 80.0000
23.1300 45.0000
23.1400 55.0000
23.1500 80.0000
23.1600 85.0000
23.1700 85.0000
23.1800 55.0000
23.1900 55.0000
23.2000 80.0000
23.2100 75.0000
23.2200 55.0000
23.2300 65.0000
23.2400 65.0000
23.2500 110.0000
23.2600 115.0000
23.2700 80.0000
23.2800 100.0000
23.2900 85.0000
23.3000 95.0000
23.3100 105.0000
23.3200 95.0000
23.3300 40.0000
23.3400 80.0000
23.3500 75.0000
23.3600 55.0000
23.3700 90.0000
23.3800 55.0000
23.3900 85.0000
23.4000 120.0000
23.4100 60.0000
23.4200 100.0000
23.4300 60.0000
23.4400 75.0000
23.4500 45.0000
23.4600 55.0000
23.4700 65.0000
23.4800 75.0000
23.4900 60.0000
23.5000 70.0000
23.5100 65.0000
23.5200 70.0000
23.5300 60.0000
23.5400 100.0000
23.5500 75.0000
23.5600 50.0000
23.5700 75.0000
23.5800 80.0000
23.5900 55.0000
23.6000 105.0000
23.6100 85.0000
23.6200 60.0000
23.6300 60.0000
23.6400 55.0000
23.6500 80.0000
23.6600 85.0000
23.6700 95.0000
23.6800 90.0000
23.6900 85.0000
23.7000 80.0000
23.7100 90.0000
23.7200 100.0000
23.7300 90.0000
23.7400 85.0000
23.7500 100.0000
23.7600 65.0000
23.7700 45.0000
23.7800 40.0000
23.7900 55.0000
23.8000 65.0000
23.8100 55.0000
23.8200 70.0000
23.8300 95.0000
23.8400 110.0000
23.8500 70.0000
23.8600 40.0000
23.8700 90.0000
23.8800 85.0000
23.8900 60.0000
23.9000 75.0000
23.9100 45.0000
23.9200 60.0000
23.9300 70.0000
23.9400 70.0000
23.9500 60.0000
23.9600 40.0000
23.9700 45.0000
23.9800 60.0000
23.9900 40.0000
24.0000 70.0000
24.0100 45.0000
24.0200 60.0000
24.0300 55.0000
24.0400 105.0000
24.0500 75.0000
24.0600 55.0000
24.0700 55.0000
24.0800 55.0000
24.0900 65.0000
24.1000 70.0000
24.1100 45.0000
24.1200 60.0000
24.1300 50.0000
24.1400 70.0000
24.1500 80.0000
24.1600 75.0000
24.1700 60.0000
24.1800 70.0000
24.1900 55.0000
24.2000 50.0000
24.2100 75.0000
24.2200 70.0000
24.2300 55.0000
24.2400 50.0000
24.2500 65.0000
24.2600 65.0000
24.2700 60.0000
24.2800 80.0000
24.2900 65.0000
24.3000 85.0000
24.3100 70.0000
24.3200 115.0000
24.3300 245.0000
24.3400 250.0000
24.3500 410.0000
24.3600 505.0000
24.3700 735.0000
24.3800 620.0000
24.3900 435.0000
24.4000 260.0000
24.4100 195.0000
24.4200 85.0000
24.4300 75.0000
24.4400 65.0000
24.4500 50.0000
24.4600 90.0000
24.4700 75.0000
24.4800 55.0000
24.4900 70.0000
24.5000 90.0000
24.5100 65.0000
24.5200 85.0000
24.5300 55.0000
24.5400 30.0000
24.5500 55.0000
24.5600 55.0000
24.5700 50.0000
24.5800 55.0000
24.5900 85.0000
24.6000 40.0000
24.6100 70.0000
24.6200 70.0000
24.6300 40.0000
24.6400 70.0000
24.6500 75.0000
24.6600 65.0000
24.6700 65.0000
24.6800 80.0000
24.6900 45.0000
24.7000 65.0000
24.7100 65.0000
24.7200 95.0000
24.7300 65.0000
24.7400 60.0000
24.7500 45.0000
24.7600 65.0000
24.7700 50.0000
24.7800 75.0000
24.7900 65.0000
24.8000 55.0000
24.8100 65.0000
24.8200 90.0000
24.8300 80.0000
24.8400 70.0000
24.8500 55.0000
24.8600 95.0000
24.8700 85.0000
24.8800 45.0000
24.8900 65.0000
24.9000 50.0000
24.9100 55.0000
24.9200 80.0000
24.9300 70.0000
24.9400 70.0000
24.9500 95.0000
24.9600 85.0000
24.9700 40.0000
24.9800 95.0000
24.9900 65.0000
25.0000 85.0000
25.0100 85.0000
25.0200 105.0000
25.0300 100.0000
25.0400 60.0000
25.0500 50.0000
25.0600 70.0000
25.0700 90.0000
25.0800 55.0000
25.0900 55.0000
25.1000 60.0000
25.1100 105.0000
25.1200 75.0000
25.1300 60.0000
25.1400 60.0000
25.1500 45.0000
25.1600 75.0000
25.1700 75.0000
25.1800 50.0000
25.1900 90.0000
25.2000 60.0000
25.2100 80.0000
25.2200 80.0000
25.2300 60.0000
25.2400 80.0000
25.2500 85.0000
25.2600 65.0000
25.2700 40.0000
25.2800 50.0000
25.2900 50.0000
25.3000 80.0000
25.3100 45.0000
25.3200 35.0000
25.3300 105.0000
25.3400 70.0000
25.3500 95.0000
25.3600 75.0000
25.3700 60.0000
25.3800 45.0000
25.3900 45.0000
25.4000 35.0000
25.4100 30.0000
25.4200 50.0000
25.4300 60.0000
25.4400 60.0000
25.4500 75.0000
25.4600 50.0000
25.4700 45.0000
25.4800 20.0000
25.4900 75.0000
25.5000 75.0000
25.5100 55.0000
25.5200 55.0000
25.5300 65.0000
25.5400 45.0000
25.5500 40.0000
25.5600 65.0000
25.5700 50.0000
25.5800 35.0000
25.5900 65.0000
25.6000 45.0000
25.6100 75.0000
25.6200 55.0000
25.6300 50.0000
25.6400 65.0000
25.6500 40.0000
25.6600 50.0000
25.6700 60.0000
25.6800 75.0000
25.6900 55.0000
25.7000 55.0000
25.7100 75.0000
25.7200 75.0000
25.7300 40.0000
25.7400 100.0000
25.7500 70.0000
25.7600 70.0000
25.7700 90.0000
25.7800 75.0000
25.7900 95.0000
25.8000 110.0000
25.8100 60.0000
25.8200 90.0000
25.8300 55.0000
25.8400 40.0000
25.8500 40.0000
25.8600 70.0000
25.8700 60.0000
25.8800 40.0000
25.8900 70.0000
25.9000 35.0000
25.9100 40.0000
25.9200 40.0000
25.9300 50.0000
25.9400 40.0000
25.9500 50.0000
25.9600 55.0000
25.9700 60.0000
25.9800 55.0000
25.9900 40.0000
26.0000 25.0000
26.0100 30.0000
26.0200 40.0000
26.0300 45.0000
26.0400 40.0000
26.0500 50.0000
26.0600 25.0000
26.0700 60.0000
26.0800 70.0000
26.0900 45.0000
26.1000 80.0000
26.1100 55.0000
26.1200 35.0000
26.1300 40.0000
26.1400 50.0000
26.1500 55.0000
26.1600 50.0000
26.1700 40.0000
26.1800 30.0000
26.1900 60.0000
26.2000 60.0000
26.2100 60.0000
26.2200 80.0000
26.2300 75.0000
26.2400 45.0000
26.2500 35.0000
26.2600 45.0000
26.2700 45.0000
26.2800 55.0000
26.2900 45.0000
26.3000 40.0000
26.3100 40.0000
26.3200 30.0000
26.3300 40.0000
26.3400 25.0000
26.3500 45.0000
26.3600 60.0000
26.3700 40.0000
26.3800 80.0000
26.3900 75.0000
26.4000 65.0000
26.4100 30.0000
26.4200 50.0000
26.4300 55.0000
26.4400 55.0000
26.4500 65.0000
26.4600 45.0000
26.4700 30.0000
26.4800 80.0000
26.4900 70.0000
26.5000 65.0000
26.5100 55.0000
26.5200 50.0000
26.5300 75.0000
26.5400 65.0000
26.5500 85.0000
26.5600 100.0000
26.5700 160.0000
26.5800 165.0000
26.5900 240.0000
26.6000 255.0000
26.6100 230.0000
26.6200 185.0000
26.6300 170.0000
26.6400 160.0000
26.6500 135.0000
26.6600 100.0000
26.6700 60.0000
26.6800 65.0000
26.6900 65.0000
26.7000 85.0000
26.7100 55.0000
26.7200 45.0000
26.7300 65.0000
26.7400 60.0000
26.7500 50.0000
26.7600 70.0000
26.7700 45.0000
26.7800 45.0000
26.7900 60.0000
26.8000 55.0000
26.8100 60.0000
26.8200 40.0000
26.8300 35.0000
26.8400 30.0000
26.8500 45.0000
26.8600 40.0000
26.8700 50.0000
26.8800 70.0000
26.8900 50.0000
26.9000 55.0000
26.9100 30.0000
26.9200 45.0000
26.9300 70.0000
26.9400 35.0000
26.9500 45.0000
26.9600 35.0000
26.9700 5.0000
26.9800 20.0000
26.9900 70.0000
27.0000 45.0000
27.0100 35.0000
27.0200 35.0000
27.0300 75.0000
27.0400 55.0000
27.0500 50.0000
27.0600 50.0000
27.0700 60.0000
27.0800 75.0000
27.0900 50.0000
27.1000 55.0000
27.1100 55.0000
27.1200 30.0000
27.1300 40.0000
27.1400 50.0000
27.1500 50.0000
27.1600 35.0000
27.1700 65.0000
27.1800 70.0000
27.1900 35.0000
27.2000 60.0000
27.2100 60.0000
27.2200 60.0000
27.2300 85.0000
27.2400 30.0000
27.2500 65.0000
27.2600 50.0000
27.2700 75.0000
27.2800 70.0000
27.2900 55.0000
27.3000 40.0000
27.3100 35.0000
27.3200 55.0000
27.3300 35.0000
27.3400 70.0000
27.3500 70.0000
27.3600 70.0000
27.3700 55.0000
27.3800 65.0000
27.3900 45.0000
27.4000 55.0000
27.4100 75.0000
27.4200 80.0000
27.4300 85.0000
27.4400 85.0000
27.4500 50.0000
27.4600 50.0000
27.4700 55.0000
27.4800 45.0000
27.4900 120.0000
27.5000 40.0000
27.5100 45.0000
27.5200 60.0000
27.5300 40.0000
27.5400 70.0000
27.5500 45.0000
27.5600 60.0000
27.5700 55.0000
27.5800 60.0000
27.5900 75.0000
27.6000 60.0000
27.6100 70.0000
27.6200 65.0000
27.6300 40.0000
27.6400 70.0000
27.6500 70.0000
27.6600 45.0000
27.6700 80.0000
27.6800 40.0000
27.6900 55.0000
27.7000 35.0000
27.7100 60.0000
27.7200 55.0000
27.7300 45.0000
27.7400 115.0000
27.7500 85.0000
27.7600 45.0000
27.7700 40.0000
27.7800 70.0000
27.7900 35.0000
27.8000 65.0000
27.8100 40.0000
27.8200 30.0000
27.8300 55.0000
27.8400 65.0000
27.8500 50.0000
27.8600 55.0000
27.8700 55.0000
27.8800 70.0000
27.8900 40.0000
27.9000 60.0000
27.9100 60.0000
27.9200 50.0000
27.9300 70.0000
27.9400 40.0000
27.9500 35.0000
27.9600 45.0000
27.9700 55.0000
27.9800 45.0000
27.9900 30.0000
28.0000 5.0000
28.0100 70.0000
28.0200 55.0000
28.0300 40.0000
28.0400 30.0000
28.0500 45.0000
28.0600 15.0000
28.0700 30.0000
28.0800 75.0000
28.0900 65.0000
28.1000 30.0000
28.1100 40.0000
28.1200 25.0000
28.1300 30.0000
28.1400 40.0000
28.1500 60.0000
28.1600 55.0000
28.1700 70.0000
28.1800 60.0000
28.1900 35.0000
28.2000 60.0000
28.2100 35.0000
28.2200 55.0000
28.2300 45.0000
28.2400 50.0000
28.2500 65.0000
28.2600 30.0000
28.2700 40.0000
28.2800 35.0000
28.2900 90.0000
28.3000 65.0000
28.3100 35.0000
28.3200 35.0000
28.3300 60.0000
28.3400 60.0000
28.3500 55.0000
28.3600 30.0000
28.3700 15.0000
28.3800 45.0000
28.3900 55.0000
28.4000 60.0000
28.4100 75.0000
28.4200 45.0000
28.4300 50.0000
28.4400 30.0000
28.4500 30.0000
28.4600 30.0000
28.4700 40.0000
28.4800 45.0000
28.4900 15.0000
28.5000 50.0000
28.5100 60.0000
28.5200 45.0000
28.5300 30.0000
28.5400 45.0000
28.5500 35.0000
28.5600 50.0000
28.5700 65.0000
28.5800 35.0000
28.5900 65.0000
28.6000 80.0000
28.6100 60.0000
28.6200 25.0000
28.6300 40.0000
28.6400 45.0000
28.6500 35.0000
28.6600 45.0000
28.6700 65.0000
28.6800 85.0000
28.6900 65.0000
28.7000 25.0000
28.7100 40.0000
28.7200 70.0000
28.7300 30.0000
28.7400 30.0000
28.7500 75.0000
28.7600 55.0000
28.7700 80.0000
28.7800 45.0000
28.7900 55.0000
28.8000 55.0000
28.8100 95.0000
28.8200 60.0000
28.8300 70.0000
28.8400 30.0000
28.8500 35.0000
28.8600 35.0000
28.8700 25.0000
28.8800 40.0000
28.8900 55.0000
28.9000 45.0000
28.9100 45.0000
28.9200 65.0000
28.9300 55.0000
28.9400 45.0000
28.9500 50.0000
28.9600 60.0000
28.9700 70.0000
28.9800 50.0000
28.9900 55.0000
29.0000 65.0000
29.0100 30.0000
29.0200 65.0000
29.0300 50.0000
29.0400 55.0000
29.0500 75.0000
29.0600 85.0000
29.0700 60.0000
29.0800 30.0000
29.0900 30.0000
29.1000 40.0000
29.1100 55.0000
29.1200 15.0000
29.1300 40.0000
29.1400 60.0000
29.1500 25.0000
29.1600 60.0000
29.1700 60.0000
29.1800 55.0000
29.1900 30.0000
29.2000 60.0000
29.2100 75.0000
29.2200 45.0000
29.2300 45.0000
29.2400 40.0000
29.2500 55.0000
29.2600 40.0000
29.2700 40.0000
29.2800 35.0000
29.2900 30.0000
29.3000 40.0000
29.3100 50.0000
29.3200 60.0000
29.3300 40.0000
29.3400 35.0000
29.3500 65.0000
29.3600 60.0000
29.3700 45.0000
29.3800 55.0000
29.3900 45.0000
29.4000 35.0000
29.4100 75.0000
29.4200 65.0000
29.4300 25.0000
29.4400 60.0000
29.4500 45.0000
29.4600 65.0000
29.4700 50.0000
29.4800 40.0000
29.4900 30.0000
29.5000 35.0000
29.5100 35.0000
29.5200 75.0000
29.5300 50.0000
29.5400 70.0000
29.5500 60.0000
29.5600 35.0000
29.5700 40.0000
29.5800 55.0000
29.5900 45.0000
29.6000 55.0000
29.6100 25.0000
29.6200 35.0000
29.6300 60.0000
29.6400 10.0000
29.6500 30.0000
29.6600 30.0000
29.6700 65.0000
29.6800 70.0000
29.6900 70.0000
29.7000 65.0000
29.7100 55.0000
29.7200 45.0000
29.7300 55.0000
29.7400 50.0000
29.7500 55.0000
29.7600 60.0000
29.7700 45.0000
29.7800 40.0000
29.7900 60.0000
29.8000 70.0000
29.8100 60.0000
29.8200 40.0000
29.8300 20.0000
29.8400 55.0000
29.8500 55.0000
29.8600 45.0000
29.8700 65.0000
29.8800 75.0000
29.8900 50.0000
29.9000 85.0000
29.9100 50.0000
29.9200 60.0000
29.9300 125.0000
29.9400 95.0000
29.9500 115.0000
29.9600 165.0000
29.9700 210.0000
29.9800 160.0000
29.9900 90.0000
30.0000 110.0000
30.0100 60.0000
30.0200 80.0000
30.0300 55.0000
30.0400 50.0000
30.0500 85.0000
30.0600 60.0000
30.0700 70.0000
30.0800 45.0000
30.0900 35.0000
30.1000 40.0000
30.1100 30.0000
30.1200 30.0000
30.1300 60.0000
30.1400 50.0000
30.1500 40.0000
30.1600 60.0000
30.1700 30.0000
30.1800 55.0000
30.1900 50.0000
30.2000 45.0000
30.2100 70.0000
30.2200 35.0000
30.2300 40.0000
30.2400 45.0000
30.2500 45.0000
30.2600 60.0000
30.2700 50.0000
30.2800 70.0000
30.2900 75.0000
30.3000 65.0000
30.3100 45.0000
30.3200 55.0000
30.3300 60.0000
30.3400 60.0000
30.3500 60.0000
30.3600 60.0000
30.3700 45.0000
30.3800 35.0000
30.3900 65.0000
30.4000 65.0000
30.4100 75.0000
30.4200 65.0000
30.4300 60.0000
30.4400 75.0000
30.4500 50.0000
30.4600 55.0000
30.4700 85.0000
30.4800 85.0000
30.4900 45.0000
30.5000 90.0000
30.5100 70.0000
30.5200 90.0000
30.5300 75.0000
30.5400 75.0000
30.5500 65.0000
30.5600 45.0000
30.5700 55.0000
30.5800 65.0000
30.5900 65.0000
30.6000 80.0000
30.6100 75.0000
30.6200 55.0000
30.6300 55.0000
30.6400 75.0000
30.6500 55.0000
30.6600 40.0000
30.6700 25.0000
30.6800 70.0000
30.6900 50.0000
30.7000 50.0000
30.7100 60.0000
30.7200 40.0000
30.7300 40.0000
30.7400 55.0000
30.7500 45.0000
30.7600 40.0000
30.7700 35.0000
30.7800 55.0000
30.7900 55.0000
30.8000 45.0000
30.8100 50.0000
30.8200 60.0000
30.8300 60.0000
30.8400 50.0000
30.8500 70.0000
30.8600 65.0000
30.8700 45.0000
30.8800 85.0000
30.8900 40.0000
30.9000 40.0000
30.9100 30.0000
30.9200 25.0000
30.9300 25.0000
30.9400 45.0000
30.9500 55.0000
30.9600 25.0000
30.9700 45.0000
30.9800 45.0000
30.9900 70.0000
31.0000 55.0000
31.0100 80.0000
31.0200 70.0000
31.0300 65.0000
31.0400 60.0000
31.0500 55.0000
31.0600 30.0000
31.0700 50.0000
31.0800 85.0000
31.0900 95.0000
31.1000 45.0000
31.1100 50.0000
31.1200 35.0000
31.1300 30.0000
31.1400 50.0000
31.1500 55.0000
31.1600 15.0000
31.1700 35.0000
31.1800 60.0000
31.1900 45.0000
31.2000 60.0000
31.2100 55.0000
31.2200 15.0000
31.2300 50.0000
31.2400 60.0000
31.2500 50.0000
31.2600 35.0000
31.2700 30.0000
31.2800 35.0000
31.2900 45.0000
31.3000 50.0000
31.3100 30.0000
31.3200 55.0000
31.3300 30.0000
31.3400 50.0000
31.3500 65.0000
31.3600 70.0000
31.3700 50.0000
31.3800 30.0000
31.3900 55.0000
31.4000 65.0000
31.4100 70.0000
31.4200 35.0000
31.4300 70.0000
31.4400 80.0000
31.4500 45.0000
31.4600 55.0000
31.4700 50.0000
31.4800 80.0000
31.4900 45.0000
31.5000 35.0000
31.5100 55.0000
31.5200 55.0000
31.5300 55.0000
31.5400 35.0000
31.5500 50.0000
31.5600 60.0000
31.5700 65.0000
31.5800 95.0000
31.5900 45.0000
31.6000 35.0000
31.6100 60.0000
31.6200 80.0000
31.6300 75.0000
31.6400 85.0000
31.6500 55.0000
31.6600 70.0000
31.6700 100.0000
31.6800 60.0000
31.6900 65.0000
31.7000 75.0000
31.7100 55.0000
31.7200 65.0000
31.7300 75.0000
31.7400 60.0000
31.7500 100.0000
31.7600 55.0000
31.7700 120.0000
31.7800 180.0000
31.7900 245.0000
31.8000 375.0000
31.8100 635.0000
31.8200 765.0000
31.8300 815.0000
31.8400 810.0000
31.8500 745.0000
31.8600 640.0000
31.8700 615.0000
31.8800 705.0000
31.8900 480.0000
31.9000 310.0000
31.9100 145.0000
31.9200 110.0000
31.9300 65.0000
31.9400 90.0000
31.9500 70.0000
31.9600 45.0000
31.9700 55.0000
31.9800 45.0000
31.9900 55.0000
32.0000 45.0000
32.0100 65.0000
32.0200 60.0000
32.0300 55.0000
32.0400 40.0000
32.0500 40.0000
32.0600 65.0000
32.0700 40.0000
32.0800 30.0000
32.0900 85.0000
32.1000 50.0000
32.1100 40.0000
32.1200 50.0000
32.1300 50.0000
32.1400 60.0000
32.1500 45.0000
32.1600 60.0000
32.1700 55.0000
32.1800 55.0000
32.1900 45.0000
32.2000 55.0000
32.2100 55.0000
32.2200 55.0000
32.2300 45.0000
32.2400 40.0000
32.2500 65.0000
32.2600 25.0000
32.2700 25.0000
32.2800 50.0000
32.2900 50.0000
32.3000 35.0000
32.3100 65.0000
32.3200 50.0000
32.3300 55.0000
32.3400 35.0000
32.3500 65.0000
32.3600 50.0000
32.3700 35.0000
32.3800 60.0000
32.3900 15.0000
32.4000 75.0000
32.4100 35.0000
32.4200 35.0000
32.4300 30.0000
32.4400 50.0000
32.4500 55.0000
32.4600 30.0000
32.4700 40.0000
32.4800 65.0000
32.4900 30.0000
32.5000 50.0000
32.5100 45.0000
32.5200 45.0000
32.5300 50.0000
32.5400 50.0000
32.5500 65.0000
32.5600 50.0000
32.5700 50.0000
32.5800 60.0000
32.5900 60.0000
32.6000 65.0000
32.6100 50.0000
32.6200 50.0000
32.6300 35.0000
32.6400 35.0000
32.6500 20.0000
32.6600 30.0000
32.6700 45.0000
32.6800 50.0000
32.6900 40.0000
32.7000 45.0000
32.7100 35.0000
32.7200 40.0000
32.7300 50.0000
32.7400 75.0000
32.7500 40.0000
32.7600 70.0000
32.7700 60.0000
32.7800 50.0000
32.7900 35.0000
32.8000 50.0000
32.8100 50.0000
32.8200 60.0000
32.8300 40.0000
32.8400 35.0000
32.8500 70.0000
32.8600 35.0000
32.8700 30.0000
32.8800 55.0000
32.8900 60.0000
32.9000 60.0000
32.9100 60.0000
32.9200 50.0000
32.9300 45.0000
32.9400 75.0000
32.9500 35.0000
32.9600 30.0000
32.9700 70.0000
32.9800 60.0000
32.9900 60.0000
33.0000 90.0000
33.0100 55.0000
33.0200 30.0000
33.0300 45.0000
33.0400 45.0000
33.0500 50.0000
33.0600 65.0000
33.0700 45.0000
33.0800 50.0000
33.0900 55.0000
33.1000 55.0000
33.1100 60.0000
33.1200 45.0000
33.1300 55.0000
33.1400 50.0000
33.1500 55.0000
33.1600 35.0000
33.1700 50.0000
33.1800 55.0000
33.1900 60.0000
33.2000 95.0000
33.2100 70.0000
33.2200 55.0000
33.2300 45.0000
33.2400 95.0000
33.2500 60.0000
33.2600 65.0000
33.2700 70.0000
33.2800 35.0000
33.2900 30.0000
33.3000 35.0000
33.3100 60.0000
33.3200 70.0000
33.3300 95.0000
33.3400 45.0000
33.3500 50.0000
33.3600 35.0000
33.3700 25.0000
33.3800 65.0000
33.3900 40.0000
33.4000 45.0000
33.4100 70.0000
33.4200 105.0000
33.4300 115.0000
33.4400 150.0000
33.4500 110.0000
33.4600 120.0000
33.4700 80.0000
33.4800 55.0000
33.4900 45.0000
33.5000 70.0000
33.5100 65.0000
33.5200 30.0000
33.5300 45.0000
33.5400 60.0000
33.5500 35.0000
33.5600 40.0000
33.5700 65.0000
33.5800 35.0000
33.5900 70.0000
33.6000 50.0000
33.6100 35.0000
33.6200 25.0000
33.6300 35.0000
33.6400 45.0000
33.6500 30.0000
33.6600 85.0000
33.6700 50.0000
33.6800 35.0000
33.6900 55.0000
33.7000 35.0000
33.7100 50.0000
33.7200 60.0000
33.7300 55.0000
33.7400 50.0000
33.7500 55.0000
33.7600 45.0000
33.7700 45.0000
33.7800 40.0000
33.7900 40.0000
33.8000 35.0000
33.8100 50.0000
33.8200 60.0000
33.8300 70.0000
33.8400 65.0000
33.8500 60.0000
33.8600 65.0000
33.8700 65.0000
33.8800 80.0000
33.8900 65.0000
33.9000 80.0000
33.9100 90.0000
33.9200 85.0000
33.9300 100.0000
33.9400 105.0000
33.9500 80.0000
33.9600 95.0000
33.9700 60.0000
33.9800 100.0000
33.9900 105.0000
34.0000 110.0000
34.0100 100.0000
34.0200 95.0000
34.0300 105.0000
34.0400 65.0000
34.0500 80.0000
34.0600 115.0000
34.0700 100.0000
34.0800 110.0000
34.0900 85.0000
34.1000 105.0000
34.1100 80.0000
34.1200 70.0000
34.1300 140.0000
34.1400 105.0000
34.1500 70.0000
34.1600 70.0000
34.1700 70.0000
34.1800 35.0000
34.1900 50.0000
34.2000 65.0000
34.2100 60.0000
34.2200 65.0000
34.2300 75.0000
34.2400 50.0000
34.2500 75.0000
34.2600 75.0000
34.2700 80.0000
34.2800 60.0000
34.2900 25.0000
34.3000 60.0000
34.3100 80.0000
34.3200 60.0000
34.3300 60.0000
34.3400 50.0000
34.3500 65.0000
34.3600 45.0000
34.3700 15.0000
34.3800 25.0000
34.3900 40.0000
34.4000 40.0000
34.4100 55.0000
34.4200 50.0000
34.4300 70.0000
34.4400 50.0000
34.4500 45.0000
34.4600 60.0000
34.4700 30.0000
34.4800 35.0000
34.4900 60.0000
34.5000 75.0000
34.5100 70.0000
34.5200 50.0000
34.5300 75.0000
34.5400 50.0000
34.5500 60.0000
34.5600 45.0000
34.5700 30.0000
34.5800 50.0000
34.5900 50.0000
34.6000 40.0000
34.6100 40.0000
34.6200 55.0000
34.6300 55.0000
34.6400 50.0000
34.6500 80.0000
34.6600 35.0000
34.6700 45.0000
34.6800 80.0000
34.6900 60.0000
34.7000 80.0000
34.7100 155.0000
34.7200 225.0000
34.7300 330.0000
34.7400 475.0000
34.7500 545.0000
34.7600 640.0000
34.7700 660.0000
34.7800 825.0000
34.7900 720.0000
34.8000 490.0000
34.8100 410.0000
34.8200 205.0000
34.8300 180.0000
34.8400 140.0000
34.8500 65.0000
34.8600 45.0000
34.8700 50.0000
34.8800 40.0000
34.8900 50.0000
34.9000 50.0000
34.9100 75.0000
34.9200 35.0000
34.9300 75.0000
34.9400 55.0000
34.9500 60.0000
34.9600 35.0000
34.9700 40.0000
34.9800 50.0000
34.9900 25.0000
35.0000 55.0000
35.0100 75.0000
35.0200 55.0000
35.0300 40.0000
35.0400 60.0000
35.0500 85.0000
35.0600 65.0000
35.0700 65.0000
35.0800 60.0000
35.0900 65.0000
35.1000 60.0000
35.1100 55.0000
35.1200 40.0000
35.1300 45.0000
35.1400 25.0000
35.1500 40.0000
35.1600 40.0000
35.1700 65.0000
35.1800 90.0000
35.1900 85.0000
35.2000 55.0000
35.2100 40.0000
35.2200 110.0000
35.2300 65.0000
35.2400 35.0000
35.2500 80.0000
35.2600 75.0000
35.2700 45.0000
35.2800 50.0000
35.2900 75.0000
35.3000 55.0000
35.3100 40.0000
35.3200 45.0000
35.3300 60.0000
35.3400 25.0000
35.3500 40.0000
35.3600 50.0000
35.3700 45.0000
35.3800 55.0000
35.3900 45.0000
35.4000 45.0000
35.4100 45.0000
35.4200 50.0000
35.4300 40.0000
35.4400 35.0000
35.4500 75.0000
35.4600 40.0000
35.4700 60.0000
35.4800 65.0000
35.4900 115.0000
35.5000 55.0000
35.5100 60.0000
35.5200 60.0000
35.5300 60.0000
35.5400 30.0000
35.5500 30.0000
35.5600 80.0000
35.5700 40.0000
35.5800 45.0000
35.5900 45.0000
35.6000 40.0000
35.6100 45.0000
35.6200 65.0000
35.6300 75.0000
35.6400 70.0000
35.6500 75.0000
35.6600 75.0000
35.6700 65.0000
35.6800 110.0000
35.6900 50.0000
35.7000 80.0000
35.7100 45.0000
35.7200 45.0000
35.7300 70.0000
35.7400 50.0000
35.7500 60.0000
35.7600 55.0000
35.7700 65.0000
35.7800 35.0000
35.7900 55.0000
35.8000 35.0000
35.8100 40.0000
35.8200 50.0000
35.8300 85.0000
35.8400 55.0000
35.8500 20.0000
35.8600 45.0000
35.8700 30.0000
35.8800 65.0000
35.8900 40.0000
35.9000 40.0000
35.9100 50.0000
35.9200 40.0000
35.9300 45.0000
35.9400 70.0000
35.9500 35.0000
35.9600 65.0000
35.9700 60.0000
35.9800 60.0000
35.9900 55.0000
36.0000 40.0000
36.0100 55.0000
36.0200 95.0000
36.0300 55.0000
36.0400 45.0000
36.0500 50.0000
36.0600 55.0000
36.0700 40.0000
36.0800 75.0000
36.0900 90.0000
36.1000 35.0000
36.1100 75.0000
36.1200 90.0000
36.1300 100.0000
36.1400 60.0000
36.1500 50.0000
36.1600 55.0000
36.1700 55.0000
36.1800 65.0000
36.1900 85.0000
36.2000 40.0000
36.2100 90.0000
36.2200 105.0000
36.2300 90.0000
36.2400 70.0000
36.2500 110.0000
36.2600 80.0000
36.2700 95.0000
36.2800 90.0000
36.2900 145.0000
36.3000 105.0000
36.3100 150.0000
36.3200 145.0000
36.3300 165.0000
36.3400 195.0000
36.3500 250.0000
36.3600 260.0000
36.3700 350.0000
36.3800 570.0000
36.3900 910.0000
36.4000 1190.0000
36.4100 1515.0000
36.4200 1590.0000
36.4300 1440.0000
36.4400 1550.0000
36.4500 1090.0000
36.4600 840.0000
36.4700 465.0000
36.4800 310.0000
36.4900 190.0000
36.5000 145.0000
36.5100 180.0000
36.5200 90.0000
36.5300 95.0000
36.5400 75.0000
36.5500 105.0000
36.5600 100.0000
36.5700 115.0000
36.5800 50.0000
36.5900 100.0000
36.6000 80.0000
36.6100 55.0000
36.6200 75.0000
36.6300 85.0000
36.6400 75.0000
36.6500 80.0000
36.6600 70.0000
36.6700 85.0000
36.6800 60.0000
36.6900 70.0000
36.7000 50.0000
36.7100 55.0000
36.7200 65.0000
36.7300 75.0000
36.7400 55.0000
36.7500 55.0000
36.7600 70.0000
36.7700 85.0000
36.7800 60.0000
36.7900 80.0000
36.8000 85.0000
36.8100 105.0000
36.8200 95.0000
36.8300 155.0000
36.8400 90.0000
36.8500 110.0000
36.8600 160.0000
36.8700 260.0000
36.8800 295.0000
36.8900 480.0000
36.9000 665.0000
36.9100 900.0000
36.9200 1310.0000
36.9300 2115.0000
36.9400 2760.0000
36.9500 3870.0000
36.9600 4145.0000
36.9700 4425.0000
36.9800 3675.0000
36.9900 2605.0000
37.0000 1790.0000
37.0100 995.0000
37.0200 505.0000
37.0300 280.0000
37.0400 160.0000
37.0500 95.0000
37.0600 135.0000
37.0700 165.0000
37.0800 75.0000
37.0900 90.0000
37.1000 65.0000
37.1100 95.0000
37.1200 100.0000
37.1300 95.0000
37.1400 90.0000
37.1500 65.0000
37.1600 75.0000
37.1700 85.0000
37.1800 75.0000
37.1900 60.0000
37.2000 65.0000
37.2100 80.0000
37.2200 70.0000
37.2300 40.0000
37.2400 60.0000
37.2500 85.0000
37.2600 65.0000
37.2700 85.0000
37.2800 50.0000
37.2900 100.0000
37.3000 135.0000
37.3100 75.0000
37.3200 50.0000
37.3300 55.0000
37.3400 90.0000
37.3500 70.0000
37.3600 65.0000
37.3700 45.0000
37.3800 95.0000
37.3900 90.0000
37.4000 70.0000
37.4100 80.0000
37.4200 45.0000
37.4300 45.0000
37.4400 70.0000
37.4500 80.0000
37.4600 75.0000
37.4700 45.0000
37.4800 65.0000
37.4900 40.0000
37.5000 30.0000
37.5100 40.0000
37.5200 85.0000
37.5300 60.0000
37.5400 70.0000
37.5500 30.0000
37.5600 55.0000
37.5700 50.0000
37.5800 40.0000
37.5900 30.0000
37.6000 50.0000
37.6100 60.0000
37.6200 45.0000
37.6300 80.0000
37.6400 35.0000
37.6500 65.0000
37.6600 40.0000
37.6700 40.0000
37.6800 40.0000
37.6900 40.0000
37.7000 30.0000
37.7100 75.0000
37.7200 75.0000
37.7300 50.0000
37.7400 40.0000
37.7500 60.0000
37.7600 50.0000
37.7700 30.0000
37.7800 40.0000
37.7900 50.0000
37.8000 25.0000
37.8100 105.0000
37.8200 35.0000
37.8300 50.0000
37.8400 40.0000
37.8500 70.0000
37.8600 65.0000
37.8700 40.0000
37.8800 40.0000
37.8900 45.0000
37.9000 75.0000
37.9100 60.0000
37.9200 45.0000
37.9300 65.0000
37.9400 55.0000
37.9500 50.0000
37.9600 65.0000
37.9700 50.0000
37.9800 65.0000
37.9900 65.0000
38.0000 50.0000
38.0100 60.0000
38.0200 40.0000
38.0300 55.0000
38.0400 100.0000
38.0500 80.0000
38.0600 45.0000
38.0700 45.0000
38.0800 50.0000
38.0900 60.0000
38.1000 55.0000
38.1100 75.0000
38.1200 60.0000
38.1300 80.0000
38.1400 75.0000
38.1500 70.0000
38.1600 45.0000
38.1700 70.0000
38.1800 35.0000
38.1900 35.0000
38.2000 85.0000
38.2100 50.0000
38.2200 65.0000
38.2300 90.0000
38.2400 50.0000
38.2500 85.0000
38.2600 95.0000
38.2700 125.0000
38.2800 95.0000
38.2900 130.0000
38.3000 115.0000
38.3100 110.0000
38.3200 125.0000
38.3300 125.0000
38.3400 120.0000
38.3500 85.0000
38.3600 130.0000
38.3700 115.0000
38.3800 95.0000
38.3900 130.0000
38.4000 125.0000
38.4100 120.0000
38.4200 155.0000
38.4300 95.0000
38.4400 90.0000
38.4500 70.0000
38.4600 80.0000
38.4700 115.0000
38.4800 100.0000
38.4900 80.0000
38.5000 125.0000
38.5100 105.0000
38.5200 55.0000
38.5300 65.0000
38.5400 45.0000
38.5500 60.0000
38.5600 35.0000
38.5700 80.0000
38.5800 65.0000
38.5900 85.0000
38.6000 110.0000
38.6100 65.0000
38.6200 80.0000
38.6300 50.0000
38.6400 70.0000
38.6500 70.0000
38.6600 85.0000
38.6700 85.0000
38.6800 50.0000
38.6900 110.0000
38.7000 45.0000
38.7100 65.0000
38.7200 75.0000
38.7300 55.0000
38.7400 70.0000
38.7500 55.0000
38.7600 80.0000
38.7700 25.0000
38.7800 60.0000
38.7900 30.0000
38.8000 45.0000
38.8100 65.0000
38.8200 60.0000
38.8300 125.0000
38.8400 60.0000
38.8500 65.0000
38.8600 100.0000
38.8700 70.0000
38.8800 95.0000
38.8900 70.0000
38.9000 80.0000
38.9100 85.0000
38.9200 105.0000
38.9300 55.0000
38.9400 80.0000
38.9500 110.0000
38.9600 90.0000
38.9700 105.0000
38.9800 130.0000
38.9900 185.0000
39.0000 180.0000
39.0100 325.0000
39.0200 400.0000
39.0300 410.0000
39.0400 445.0000
39.0500 505.0000
39.0600 515.0000
39.0700 460.0000
39.0800 290.0000
39.0900 230.0000
39.1000 130.0000
39.1100 85.0000
39.1200 130.0000
39.1300 105.0000
39.1400 75.0000
39.1500 90.0000
39.1600 55.0000
39.1700 70.0000
39.1800 75.0000
39.1900 85.0000
39.2000 45.0000
39.2100 45.0000
39.2200 95.0000
39.2300 40.0000
39.2400 75.0000
39.2500 55.0000
39.2600 55.0000
39.2700 80.0000
39.2800 45.0000
39.2900 70.0000
39.3000 80.0000
39.3100 100.0000
39.3200 120.0000
39.3300 80.0000
39.3400 85.0000
39.3500 70.0000
39.3600 70.0000
39.3700 90.0000
39.3800 70.0000
39.3900 50.0000
39.4000 55.0000
39.4100 95.0000
39.4200 75.0000
39.4300 80.0000
39.4400 55.0000
39.4500 85.0000
39.4600 85.0000
39.4700 50.0000
39.4800 55.0000
39.4900 60.0000
39.5000 85.0000
39.5100 65.0000
39.5200 70.0000
39.5300 45.0000
39.5400 70.0000
39.5500 70.0000
39.5600 45.0000
39.5700 65.0000
39.5800 65.0000
39.5900 40.0000
39.6000 45.0000
39.6100 65.0000
39.6200 55.0000
39.6300 65.0000
39.6400 55.0000
39.6500 70.0000
39.6600 45.0000
39.6700 65.0000
39.6800 75.0000
39.6900 60.0000
39.7000 65.0000
39.7100 75.0000
39.7200 45.0000
39.7300 60.0000
39.7400 50.0000
39.7500 90.0000
39.7600 70.0000
39.7700 60.0000
39.7800 70.0000
39.7900 65.0000
39.8000 70.0000
39.8100 60.0000
39.8200 65.0000
39.8300 60.0000
39.8400 85.0000
39.8500 80.0000
39.8600 65.0000
39.8700 70.0000
39.8800 95.0000
39.8900 60.0000
39.9000 125.0000
39.9100 120.0000
39.9200 175.0000
39.9300 235.0000
39.9400 350.0000
39.9500 480.0000
39.9600 710.0000
39.9700 1120.0000
39.9800 1410.0000
39.9900 1120.0000
40.0000 785.0000
40.0100 490.0000
40.0200 365.0000
40.0300 255.0000
40.0400 165.0000
40.0500 170.0000
40.0600 140.0000
40.0700 130.0000
40.0800 90.0000
40.0900 85.0000
40.1000 65.0000
40.1100 95.0000
40.1200 65.0000
40.1300 90.0000
40.1400 105.0000
40.1500 140.0000
40.1600 60.0000
40.1700 70.0000
40.1800 100.0000
40.1900 105.0000
40.2000 105.0000
40.2100 85.0000
40.2200 70.0000
40.2300 70.0000
40.2400 110.0000
40.2500 75.0000
40.2600 80.0000
40.2700 115.0000
40.2800 95.0000
40.2900 115.0000
40.3000 145.0000
40.3100 100.0000
40.3200 110.0000
40.3300 135.0000
40.3400 90.0000
40.3500 110.0000
40.3600 135.0000
40.3700 125.0000
40.3800 140.0000
40.3900 190.0000
40.4000 200.0000
40.4100 170.0000
40.4200 220.0000
40.4300 250.0000
40.4400 225.0000
40.4500 380.0000
40.4600 440.0000
40.4700 555.0000
40.4800 740.0000
40.4900 1310.0000
40.5000 1700.0000
40.5100 2610.0000
40.5200 3620.0000
40.5300 5130.0000
40.5400 6035.0000
40.5500 6000.0000
40.5600 6545.0000
40.5700 6105.0000
40.5800 4970.0000
40.5900 3525.0000
40.6000 1795.0000
40.6100 980.0000
40.6200 570.0000
40.6300 395.0000
40.6400 250.0000
40.6500 210.0000
40.6600 220.0000
40.6700 190.0000
40.6800 145.0000
40.6900 130.0000
40.7000 150.0000
40.7100 110.0000
40.7200 105.0000
40.7300 95.0000
40.7400 105.0000
40.7500 95.0000
40.7600 105.0000
40.7700 110.0000
40.7800 115.0000
40.7900 110.0000
40.8000 100.0000
40.8100 75.0000
40.8200 95.0000
40.8300 100.0000
40.8400 90.0000
40.8500 115.0000
40.8600 145.0000
40.8700 100.0000
40.8800 85.0000
40.8900 95.0000
40.9000 120.0000
40.9100 185.0000
40.9200 215.0000
40.9300 190.0000
40.9400 190.0000
40.9500 315.0000
40.9600 465.0000
40.9700 690.0000
40.9800 1135.0000
40.9900 1720.0000
41.0000 2720.0000
41.0100 3540.0000
41.0200 4010.0000
41.0300 4430.0000
41.0400 4990.0000
41.0500 4510.0000
41.0600 3355.0000
41.0700 1845.0000
41.0800 985.0000
41.0900 485.0000
41.1000 280.0000
41.1100 225.0000
41.1200 205.0000
41.1300 170.0000
41.1400 150.0000
41.1500 160.0000
41.1600 150.0000
41.1700 125.0000
41.1800 110.0000
41.1900 115.0000
41.2000 80.0000
41.2100 125.0000
41.2200 110.0000
41.2300 80.0000
41.2400 60.0000
41.2500 110.0000
41.2600 95.0000
41.2700 90.0000
41.2800 140.0000
41.2900 115.0000
41.3000 90.0000
41.3100 105.0000
41.3200 140.0000
41.3300 120.0000
41.3400 95.0000
41.3500 145.0000
41.3600 140.0000
41.3700 100.0000
41.3800 120.0000
41.3900 110.0000
41.4000 150.0000
41.4100 125.0000
41.4200 85.0000
41.4300 110.0000
41.4400 110.0000
41.4500 145.0000
41.4600 110.0000
41.4700 100.0000
41.4800 125.0000
41.4900 95.0000
41.5000 95.0000
41.5100 140.0000
41.5200 90.0000
41.5300 60.0000
41.5400 85.0000
41.5500 75.0000
41.5600 70.0000
41.5700 85.0000
41.5800 75.0000
41.5900 75.0000
41.6000 65.0000
41.6100 55.0000
41.6200 45.0000
41.6300 70.0000
41.6400 70.0000
41.6500 75.0000
41.6600 95.0000
41.6700 55.0000
41.6800 45.0000
41.6900 75.0000
41.7000 90.0000
41.7100 70.0000
41.7200 105.0000
41.7300 70.0000
41.7400 80.0000
41.7500 60.0000
41.7600 60.0000
41.7700 70.0000
41.7800 70.0000
41.7900 65.0000
41.8000 35.0000
41.8100 80.0000
41.8200 75.0000
41.8300 45.0000
41.8400 50.0000
41.8500 50.0000
41.8600 65.0000
41.8700 80.0000
41.8800 50.0000
41.8900 65.0000
41.9000 80.0000
41.9100 60.0000
41.9200 90.0000
41.9300 90.0000
41.9400 80.0000
41.9500 45.0000
41.9600 50.0000
41.9700 80.0000
41.9800 75.0000
41.9900 65.0000
42.0000 30.0000
42.0100 85.0000
42.0200 85.0000
42.0300 80.0000
42.0400 60.0000
42.0500 65.0000
42.0600 75.0000
42.0700 60.0000
42.0800 60.0000
42.0900 90.0000
42.1000 85.0000
42.1100 100.0000
42.1200 65.0000
42.1300 70.0000
42.1400 70.0000
42.1500 50.0000
42.1600 45.0000
42.1700 50.0000
42.1800 65.0000
42.1900 70.0000
42.2000 90.0000
42.2100 55.0000
42.2200 70.0000
42.2300 115.0000
42.2400 70.0000
42.2500 75.0000
42.2600 80.0000
42.2700 110.0000
42.2800 45.0000
42.2900 75.0000
42.3000 105.0000
42.3100 110.0000
42.3200 80.0000
42.3300 60.0000
42.3400 85.0000
42.3500 65.0000
42.3600 80.0000
42.3700 75.0000
42.3800 75.0000
42.3900 75.0000
42.4000 65.0000
42.4100 65.0000
42.4200 45.0000
42.4300 80.0000
42.4400 90.0000
42.4500 75.0000
42.4600 45.0000
42.4700 70.0000
42.4800 95.0000
42.4900 65.0000
42.5000 75.0000
42.5100 50.0000
42.5200 80.0000
42.5300 45.0000
42.5400 45.0000
42.5500 50.0000
42.5600 40.0000
42.5700 35.0000
42.5800 40.0000
42.5900 35.0000
42.6000 40.0000
42.6100 35.0000
42.6200 50.0000
42.6300 45.0000
42.6400 70.0000
42.6500 50.0000
42.6600 65.0000
42.6700 50.0000
42.6800 95.0000
42.6900 80.0000
42.7000 60.0000
42.7100 80.0000
42.7200 45.0000
42.7300 45.0000
42.7400 60.0000
42.7500 90.0000
42.7600 35.0000
42.7700 65.0000
42.7800 30.0000
42.7900 75.0000
42.8000 70.0000
42.8100 70.0000
42.8200 100.0000
42.8300 80.0000
42.8400 85.0000
42.8500 100.0000
42.8600 150.0000
42.8700 175.0000
42.8800 250.0000
42.8900 335.0000
42.9000 455.0000
42.9100 645.0000
42.9200 1020.0000
42.9300 1345.0000
42.9400 1560.0000
42.9500 1405.0000
42.9600 1215.0000
42.9700 1190.0000
42.9800 1335.0000
42.9900 1075.0000
43.0000 555.0000
43.0100 360.0000
43.0200 245.0000
43.0300 165.0000
43.0400 135.0000
43.0500 150.0000
43.0600 115.0000
43.0700 55.0000
43.0800 95.0000
43.0900 115.0000
43.1000 90.0000
43.1100 115.0000
43.1200 75.0000
43.1300 125.0000
43.1400 75.0000
43.1500 80.0000
43.1600 65.0000
43.1700 100.0000
43.1800 125.0000
43.1900 125.0000
43.2000 130.0000
43.2100 115.0000
43.2200 135.0000
43.2300 125.0000
43.2400 125.0000
43.2500 155.0000
43.2600 160.0000
43.2700 130.0000
43.2800 205.0000
43.2900 210.0000
43.3000 165.0000
43.3100 170.0000
43.3200 205.0000
43.3300 170.0000
43.3400 135.0000
43.3500 165.0000
43.3600 130.0000
43.3700 105.0000
43.3800 120.0000
43.3900 95.0000
43.4000 100.0000
43.4100 65.0000
43.4200 100.0000
43.4300 80.0000
43.4400 85.0000
43.4500 75.0000
43.4600 75.0000
43.4700 85.0000
43.4800 45.0000
43.4900 80.0000
43.5000 65.0000
43.5100 35.0000
43.5200 100.0000
43.5300 100.0000
43.5400 70.0000
43.5500 50.0000
43.5600 45.0000
43.5700 50.0000
43.5800 55.0000
43.5900 45.0000
43.6000 35.0000
43.6100 15.0000
43.6200 30.0000
43.6300 45.0000
43.6400 75.0000
43.6500 55.0000
43.6600 50.0000
43.6700 35.0000
43.6800 65.0000
43.6900 50.0000
43.7000 70.0000
43.7100 50.0000
43.7200 35.0000
43.7300 45.0000
43.7400 70.0000
43.7500 45.0000
43.7600 70.0000
43.7700 50.0000
43.7800 30.0000
43.7900 30.0000
43.8000 50.0000
43.8100 20.0000
43.8200 50.0000
43.8300 65.0000
43.8400 45.0000
43.8500 50.0000
43.8600 50.0000
43.8700 40.0000
43.8800 55.0000
43.8900 35.0000
43.9000 30.0000
43.9100 65.0000
43.9200 30.0000
43.9300 35.0000
43.9400 55.0000
43.9500 65.0000
43.9600 40.0000
43.9700 40.0000
43.9800 40.0000
43.9900 30.0000
44.0000 40.0000
44.0100 80.0000
44.0200 30.0000
44.0300 60.0000
44.0400 65.0000
44.0500 45.0000
44.0600 50.0000
44.0700 70.0000
44.0800 65.0000
44.0900 50.0000
44.1000 80.0000
44.1100 85.0000
44.1200 75.0000
44.1300 65.0000
44.1400 75.0000
44.1500 100.0000
44.1600 60.0000
44.1700 65.0000
44.1800 85.0000
44.1900 85.0000
44.2000 110.0000
44.2100 105.0000
44.2200 200.0000
44.2300 185.0000
44.2400 170.0000
44.2500 240.0000
44.2600 335.0000
44.2700 425.0000
44.2800 530.0000
44.2900 840.0000
44.3000 1155.0000
44.3100 1765.0000
44.3200 2465.0000
44.3300 3125.0000
44.3400 2955.0000
44.3500 2870.0000
44.3600 2415.0000
44.3700 1930.0000
44.3800 1330.0000
44.3900 775.0000
44.4000 635.0000
44.4100 350.0000
44.4200 285.0000
44.4300 225.0000
44.4400 160.0000
44.4500 135.0000
44.4600 120.0000
44.4700 95.0000
44.4800 120.0000
44.4900 70.0000
44.5000 70.0000
44.5100 60.0000
44.5200 55.0000
44.5300 60.0000
44.5400 60.0000
44.5500 70.0000
44.5600 55.0000
44.5700 65.0000
44.5800 60.0000
44.5900 50.0000
44.6000 35.0000
44.6100 55.0000
44.6200 55.0000
44.6300 60.0000
44.6400 50.0000
44.6500 45.0000
44.6600 40.0000
44.6700 60.0000
44.6800 40.0000
44.6900 45.0000
44.7000 25.0000
44.7100 50.0000
44.7200 80.0000
44.7300 45.0000
44.7400 55.0000
44.7500 45.0000
44.7600 35.0000
44.7700 75.0000
44.7800 60.0000
44.7900 60.0000
44.8000 55.0000
44.8100 50.0000
44.8200 35.0000
44.8300 35.0000
44.8400 50.0000
44.8500 25.0000
44.8600 40.0000
44.8700 35.0000
44.8800 50.0000
44.8900 35.0000
44.9000 30.0000
44.9100 45.0000
44.9200 45.0000
44.9300 50.0000
44.9400 35.0000
44.9500 50.0000
44.9600 45.0000
44.9700 45.0000
44.9800 50.0000
44.9900 50.0000
45.0000 50.0000
45.0100 40.0000
45.0200 30.0000
45.0300 35.0000
45.0400 40.0000
45.0500 20.0000
45.0600 25.0000
45.0700 30.0000
45.0800 45.0000
45.0900 40.0000
45.1000 50.0000
45.1100 60.0000
45.1200 40.0000
45.1300 60.0000
45.1400 50.0000
45.1500 40.0000
45.1600 25.0000
45.1700 40.0000
45.1800 30.0000
45.1900 35.0000
45.2000 40.0000
45.2100 45.0000
45.2200 50.0000
45.2300 65.0000
45.2400 45.0000
45.2500 55.0000
45.2600 30.0000
45.2700 25.0000
45.2800 45.0000
45.2900 35.0000
45.3000 45.0000
45.3100 35.0000
45.3200 45.0000
45.3300 50.0000
45.3400 85.0000
45.3500 30.0000
45.3600 45.0000
45.3700 60.0000
45.3800 45.0000
45.3900 30.0000
45.4000 35.0000
45.4100 45.0000
45.4200 55.0000
45.4300 55.0000
45.4400 25.0000
45.4500 45.0000
45.4600 30.0000
45.4700 20.0000
45.4800 35.0000
45.4900 45.0000
45.5000 30.0000
45.5100 20.0000
45.5200 30.0000
45.5300 40.0000
45.5400 35.0000
45.5500 40.0000
45.5600 10.0000
45.5700 35.0000
45.5800 65.0000
45.5900 10.0000
45.6000 50.0000
45.6100 40.0000
45.6200 10.0000
45.6300 55.0000
45.6400 25.0000
45.6500 30.0000
45.6600 55.0000
45.6700 20.0000
45.6800 35.0000
45.6900 30.0000
45.7000 50.0000
45.7100 25.0000
45.7200 65.0000
45.7300 30.0000
45.7400 25.0000
45.7500 40.0000
45.7600 30.0000
45.7700 45.0000
45.7800 35.0000
45.7900 55.0000
45.8000 30.0000
45.8100 45.0000
45.8200 70.0000
45.8300 55.0000
45.8400 50.0000
45.8500 25.0000
45.8600 45.0000
45.8700 60.0000
45.8800 40.0000
45.8900 60.0000
45.9000 55.0000
45.9100 55.0000
45.9200 30.0000
45.9300 50.0000
45.9400 75.0000
45.9500 70.0000
45.9600 75.0000
45.9700 15.0000
45.9800 60.0000
45.9900 65.0000
46.0000 55.0000
46.0100 60.0000
46.0200 45.0000
46.0300 50.0000
46.0400 90.0000
46.0500 55.0000
46.0600 65.0000
46.0700 60.0000
46.0800 60.0000
46.0900 30.0000
46.1000 70.0000
46.1100 50.0000
46.1200 80.0000
46.1300 35.0000
46.1400 50.0000
46.1500 40.0000
46.1600 50.0000
46.1700 35.0000
46.1800 25.0000
46.1900 20.0000
46.2000 40.0000
46.2100 40.0000
46.2200 35.0000
46.2300 30.0000
46.2400 45.0000
46.2500 55.0000
46.2600 40.0000
46.2700 30.0000
46.2800 60.0000
46.2900 20.0000
46.3000 45.0000
46.3100 75.0000
46.3200 50.0000
46.3300 40.0000
46.3400 25.0000
46.3500 60.0000
46.3600 70.0000
46.3700 45.0000
46.3800 45.0000
46.3900 30.0000
46.4000 50.0000
46.4100 25.0000
46.4200 15.0000
46.4300 25.0000
46.4400 40.0000
46.4500 25.0000
46.4600 25.0000
46.4700 35.0000
46.4800 65.0000
46.4900 45.0000
46.5000 65.0000
46.5100 70.0000
46.5200 50.0000
46.5300 110.0000
46.5400 100.0000
46.5500 130.0000
46.5600 275.0000
46.5700 335.0000
46.5800 360.0000
46.5900 280.0000
46.6000 265.0000
46.6100 275.0000
46.6200 220.0000
46.6300 110.0000
46.6400 140.0000
46.6500 110.0000
46.6600 55.0000
46.6700 40.0000
46.6800 50.0000
46.6900 40.0000
46.7000 35.0000
46.7100 30.0000
46.7200 30.0000
46.7300 60.0000
46.7400 45.0000
46.7500 70.0000
46.7600 55.0000
46.7700 50.0000
46.7800 55.0000
46.7900 60.0000
46.8000 55.0000
46.8100 70.0000
46.8200 70.0000
46.8300 60.0000
46.8400 45.0000
46.8500 65.0000
46.8600 65.0000
46.8700 60.0000
46.8800 45.0000
46.8900 40.0000
46.9000 55.0000
46.9100 45.0000
46.9200 55.0000
46.9300 55.0000
46.9400 50.0000
46.9500 70.0000
46.9600 75.0000
46.9700 75.0000
46.9800 85.0000
46.9900 60.0000
47.0000 60.0000
47.0100 65.0000
47.0200 50.0000
47.0300 70.0000
47.0400 55.0000
47.0500 50.0000
47.0600 55.0000
47.0700 55.0000
47.0800 55.0000
47.0900 60.0000
47.1000 70.0000
47.1100 65.0000
47.1200 50.0000
47.1300 55.0000
47.1400 75.0000
47.1500 55.0000
47.1600 65.0000
47.1700 75.0000
47.1800 60.0000
47.1900 70.0000
47.2000 55.0000
47.2100 60.0000
47.2200 65.0000
47.2300 60.0000
47.2400 55.0000
47.2500 50.0000
47.2600 55.0000
47.2700 55.0000
47.2800 55.0000
47.2900 35.0000
47.3000 50.0000
47.3100 60.0000
47.3200 50.0000
47.3300 80.0000
47.3400 65.0000
47.3500 55.0000
47.3600 45.0000
47.3700 55.0000
47.3800 35.0000
47.3900 40.0000
47.4000 60.0000
47.4100 45.0000
47.4200 45.0000
47.4300 35.0000
47.4400 50.0000
47.4500 40.0000
47.4600 50.0000
47.4700 70.0000
47.4800 65.0000
47.4900 45.0000
47.5000 60.0000
47.5100 35.0000
47.5200 45.0000
47.5300 55.0000
47.5400 45.0000
47.5500 50.0000
47.5600 60.0000
47.5700 40.0000
47.5800 55.0000
47.5900 65.0000
47.6000 60.0000
47.6100 25.0000
47.6200 60.0000
47.6300 90.0000
47.6400 50.0000
47.6500 50.0000
47.6600 60.0000
47.6700 45.0000
47.6800 60.0000
47.6900 70.0000
47.7000 70.0000
47.7100 70.0000
47.7200 65.0000
47.7300 70.0000
47.7400 85.0000
47.7500 60.0000
47.7600 95.0000
47.7700 70.0000
47.7800 50.0000
47.7900 70.0000
47.8000 70.0000
47.8100 75.0000
47.8200 90.0000
47.8300 90.0000
47.8400 80.0000
47.8500 80.0000
47.8600 100.0000
47.8700 110.0000
47.8800 125.0000
47.8900 120.0000
47.9000 105.0000
47.9100 170.0000
47.9200 115.0000
47.9300 120.0000
47.9400 110.0000
47.9500 100.0000
47.9600 20.0000
47.9700 80.0000
47.9800 65.0000
47.9900 95.0000
48.0000 95.0000
48.0100 100.0000
48.0200 90.0000
48.0300 85.0000
48.0400 100.0000
48.0500 115.0000
48.0600 75.0000
48.0700 85.0000
48.0800 85.0000
48.0900 65.0000
48.1000 75.0000
48.1100 60.0000
48.1200 45.0000
48.1300 55.0000
48.1400 65.0000
48.1500 65.0000
48.1600 50.0000
48.1700 45.0000
48.1800 25.0000
48.1900 20.0000
48.2000 40.0000
48.2100 20.0000
48.2200 40.0000
48.2300 35.0000
48.2400 40.0000
48.2500 30.0000
48.2600 20.0000
48.2700 25.0000
48.2800 30.0000
48.2900 45.0000
48.3000 75.0000
48.3100 30.0000
48.3200 20.0000
48.3300 45.0000
48.3400 60.0000
48.3500 35.0000
48.3600 45.0000
48.3700 45.0000
48.3800 25.0000
48.3900 45.0000
48.4000 45.0000
48.4100 45.0000
48.4200 55.0000
48.4300 60.0000
48.4400 40.0000
48.4500 55.0000
48.4600 45.0000
48.4700 65.0000
48.4800 45.0000
48.4900 60.0000
48.5000 45.0000
48.5100 60.0000
48.5200 30.0000
48.5300 50.0000
48.5400 55.0000
48.5500 40.0000
48.5600 60.0000
48.5700 55.0000
48.5800 50.0000
48.5900 100.0000
48.6000 40.0000
48.6100 55.0000
48.6200 80.0000
48.6300 35.0000
48.6400 35.0000
48.6500 40.0000
48.6600 65.0000
48.6700 45.0000
48.6800 45.0000
48.6900 60.0000
48.7000 45.0000
48.7100 75.0000
48.7200 45.0000
48.7300 50.0000
48.7400 40.0000
48.7500 45.0000
48.7600 40.0000
48.7700 40.0000
48.7800 45.0000
48.7900 50.0000
48.8000 30.0000
48.8100 35.0000
48.8200 10.0000
48.8300 55.0000
48.8400 50.0000
48.8500 60.0000
48.8600 45.0000
48.8700 50.0000
48.8800 35.0000
48.8900 50.0000
48.9000 70.0000
48.9100 55.0000
48.9200 70.0000
48.9300 45.0000
48.9400 30.0000
48.9500 45.0000
48.9600 45.0000
48.9700 30.0000
48.9800 50.0000
48.9900 40.0000
49.0000 45.0000
49.0100 45.0000
49.0200 40.0000
49.0300 45.0000
49.0400 40.0000
49.0500 55.0000
49.0600 25.0000
49.0700 25.0000
49.0800 45.0000
49.0900 45.0000
49.1000 55.0000
49.1100 40.0000
49.1200 30.0000
49.1300 45.0000
49.1400 45.0000
49.1500 30.0000
49.1600 55.0000
49.1700 40.0000
49.1800 25.0000
49.1900 40.0000
49.2000 60.0000
49.2100 45.0000
49.2200 35.0000
49.2300 25.0000
49.2400 50.0000
49.2500 40.0000
49.2600 45.0000
49.2700 40.0000
49.2800 40.0000
49.2900 30.0000
49.3000 20.0000
49.3100 45.0000
49.3200 45.0000
49.3300 25.0000
49.3400 35.0000
49.3500 30.0000
49.3600 65.0000
49.3700 50.0000
49.3800 25.0000
49.3900 40.0000
49.4000 50.0000
49.4100 50.0000
49.4200 40.0000
49.4300 45.0000
49.4400 45.0000
49.4500 60.0000
49.4600 70.0000
49.4700 30.0000
49.4800 55.0000
49.4900 5.0000
49.5000 25.0000
49.5100 35.0000
49.5200 45.0000
49.5300 45.0000
49.5400 40.0000
49.5500 20.0000
49.5600 20.0000
49.5700 25.0000
49.5800 30.0000
49.5900 65.0000
49.6000 45.0000
49.6100 45.0000
49.6200 15.0000
49.6300 35.0000
49.6400 40.0000
49.6500 35.0000
49.6600 45.0000
49.6700 35.0000
49.6800 40.0000
49.6900 35.0000
49.7000 55.0000
49.7100 15.0000
49.7200 60.0000
49.7300 35.0000
49.7400 35.0000
49.7500 25.0000
49.7600 30.0000
49.7700 35.0000
49.7800 60.0000
49.7900 45.0000
49.8000 25.0000
49.8100 55.0000
49.8200 35.0000
49.8300 20.0000
49.8400 30.0000
49.8500 35.0000
49.8600 35.0000
49.8700 40.0000
49.8800 30.0000
49.8900 70.0000
49.9000 60.0000
49.9100 75.0000
49.9200 55.0000
49.9300 65.0000
49.9400 45.0000
49.9500 60.0000
49.9600 115.0000
49.9700 125.0000
49.9800 170.0000
49.9900 200.0000
50.0000 275.0000
50.0100 400.0000
50.0200 530.0000
50.0300 565.0000
50.0400 625.0000
50.0500 525.0000
50.0600 335.0000
50.0700 220.0000
50.0800 160.0000
50.0900 115.0000
50.1000 45.0000
50.1100 55.0000
50.1200 25.0000
50.1300 50.0000
50.1400 80.0000
50.1500 10.0000
50.1600 40.0000
50.1700 30.0000
50.1800 40.0000
50.1900 30.0000
50.2000 35.0000
50.2100 35.0000
50.2200 25.0000
50.2300 65.0000
50.2400 55.0000
50.2500 20.0000
50.2600 20.0000
50.2700 35.0000
50.2800 35.0000
50.2900 55.0000
50.3000 50.0000
50.3100 55.0000
50.3200 40.0000
50.3300 40.0000
50.3400 35.0000
50.3500 65.0000
50.3600 40.0000
50.3700 25.0000
50.3800 30.0000
50.3900 35.0000
50.4000 50.0000
50.4100 20.0000
50.4200 35.0000
50.4300 55.0000
50.4400 35.0000
50.4500 40.0000
50.4600 50.0000
50.4700 30.0000
50.4800 35.0000
50.4900 40.0000
50.5000 35.0000
50.5100 45.0000
50.5200 40.0000
50.5300 30.0000
50.5400 35.0000
50.5500 45.0000
50.5600 40.0000
50.5700 45.0000
50.5800 30.0000
50.5900 40.0000
50.6000 65.0000
50.6100 45.0000
50.6200 40.0000
50.6300 20.0000
50.6400 25.0000
50.6500 30.0000
50.6600 65.0000
50.6700 35.0000
50.6800 55.0000
50.6900 35.0000
50.7000 40.0000
50.7100 30.0000
50.7200 30.0000
50.7300 25.0000
50.7400 30.0000
50.7500 45.0000
50.7600 20.0000
50.7700 30.0000
50.7800 45.0000
50.7900 35.0000
50.8000 45.0000
50.8100 55.0000
50.8200 30.0000
50.8300 25.0000
50.8400 30.0000
50.8500 45.0000
50.8600 40.0000
50.8700 30.0000
50.8800 10.0000
50.8900 20.0000
50.9000 15.0000
50.9100 20.0000
50.9200 25.0000
50.9300 45.0000
50.9400 25.0000
50.9500 20.0000
50.9600 30.0000
50.9700 50.0000
50.9800 25.0000
50.9900 30.0000
51.0000 50.0000
51.0100 35.0000
51.0200 35.0000
51.0300 40.0000
51.0400 25.0000
51.0500 40.0000
51.0600 35.0000
51.0700 45.0000
51.0800 55.0000
51.0900 45.0000
51.1000 40.0000
51.1100 30.0000
51.1200 80.0000
51.1300 60.0000
51.1400 25.0000
51.1500 20.0000
51.1600 30.0000
51.1700 60.0000
51.1800 65.0000
51.1900 35.0000
51.2000 30.0000
51.2100 55.0000
51.2200 65.0000
51.2300 100.0000
51.2400 75.0000
51.2500 135.0000
51.2600 180.0000
51.2700 220.0000
51.2800 205.0000
51.2900 205.0000
51.3000 160.0000
51.3100 120.0000
51.3200 65.0000
51.3300 40.0000
51.3400 50.0000
51.3500 30.0000
51.3600 30.0000
51.3700 25.0000
51.3800 45.0000
51.3900 20.0000
51.4000 35.0000
51.4100 25.0000
51.4200 30.0000
51.4300 25.0000
51.4400 35.0000
51.4500 25.0000
51.4600 15.0000
51.4700 20.0000
51.4800 35.0000
51.4900 40.0000
51.5000 40.0000
51.5100 55.0000
51.5200 40.0000
51.5300 25.0000
51.5400 65.0000
51.5500 25.0000
51.5600 50.0000
51.5700 25.0000
51.5800 30.0000
51.5900 20.0000
51.6000 70.0000
51.6100 55.0000
51.6200 95.0000
51.6300 100.0000
51.6400 120.0000
51.6500 160.0000
51.6600 180.0000
51.6700 190.0000
51.6800 175.0000
51.6900 185.0000
51.7000 150.0000
51.7100 195.0000
51.7200 95.0000
51.7300 85.0000
51.7400 35.0000
51.7500 40.0000
51.7600 30.0000
51.7700 45.0000
51.7800 20.0000
51.7900 35.0000
51.8000 15.0000
51.8100 35.0000
51.8200 25.0000
51.8300 40.0000
51.8400 40.0000
51.8500 45.0000
51.8600 45.0000
51.8700 50.0000
51.8800 25.0000
51.8900 30.0000
51.9000 55.0000
51.9100 30.0000
51.9200 15.0000
51.9300 45.0000
51.9400 50.0000
51.9500 40.0000
51.9600 25.0000
51.9700 45.0000
51.9800 55.0000
51.9900 40.0000
52.0000 55.0000
52.0100 60.0000
52.0200 40.0000
52.0300 40.0000
52.0400 25.0000
52.0500 20.0000
52.0600 45.0000
52.0700 30.0000
52.0800 35.0000
52.0900 35.0000
52.1000 35.0000
52.1100 45.0000
52.1200 45.0000
52.1300 40.0000
52.1400 10.0000
52.1500 15.0000
52.1600 25.0000
52.1700 75.0000
52.1800 45.0000
52.1900 35.0000
52.2000 60.0000
52.2100 30.0000
52.2200 15.0000
52.2300 30.0000
52.2400 45.0000
52.2500 40.0000
52.2600 40.0000
52.2700 25.0000
52.2800 40.0000
52.2900 35.0000
52.3000 65.0000
52.3100 45.0000
52.3200 45.0000
52.3300 50.0000
52.3400 45.0000
52.3500 50.0000
52.3600 45.0000
52.3700 60.0000
52.3800 45.0000
52.3900 55.0000
52.4000 70.0000
52.4100 25.0000
52.4200 10.0000
52.4300 65.0000
52.4400 60.0000
52.4500 50.0000
52.4600 70.0000
52.4700 45.0000
52.4800 35.0000
52.4900 40.0000
52.5000 20.0000
52.5100 35.0000
52.5200 60.0000
52.5300 45.0000
52.5400 35.0000
52.5500 30.0000
52.5600 50.0000
52.5700 50.0000
52.5800 30.0000
52.5900 35.0000
52.6000 50.0000
52.6100 30.0000
52.6200 30.0000
52.6300 40.0000
52.6400 15.0000
52.6500 40.0000
52.6600 45.0000
52.6700 10.0000
52.6800 20.0000
52.6900 20.0000
52.7000 20.0000
52.7100 30.0000
52.7200 35.0000
52.7300 35.0000
52.7400 20.0000
52.7500 30.0000
52.7600 30.0000
52.7700 30.0000
52.7800 30.0000
52.7900 45.0000
52.8000 40.0000
52.8100 25.0000
52.8200 45.0000
52.8300 55.0000
52.8400 50.0000
52.8500 35.0000
52.8600 50.0000
52.8700 50.0000
52.8800 25.0000
52.8900 25.0000
52.9000 40.0000
52.9100 15.0000
52.9200 35.0000
52.9300 55.0000
52.9400 35.0000
52.9500 15.0000
52.9600 45.0000
52.9700 40.0000
52.9800 35.0000
52.9900 45.0000
53.0000 50.0000
53.0100 40.0000
53.0200 25.0000
53.0300 65.0000
53.0400 40.0000
53.0500 45.0000
53.0600 35.0000
53.0700 50.0000
53.0800 50.0000
53.0900 40.0000
53.1000 35.0000
53.1100 45.0000
53.1200 55.0000
53.1300 80.0000
53.1400 70.0000
53.1500 80.0000
53.1600 90.0000
53.1700 80.0000
53.1800 65.0000
53.1900 75.0000
53.2000 105.0000
53.2100 145.0000
53.2200 160.0000
53.2300 200.0000
53.2400 260.0000
53.2500 395.0000
53.2600 610.0000
53.2700 695.0000
53.2800 1015.0000
53.2900 1160.0000
53.3000 1255.0000
53.3100 1205.0000
53.3200 1000.0000
53.3300 1050.0000
53.3400 910.0000
53.3500 650.0000
53.3600 365.0000
53.3700 185.0000
53.3800 155.0000
53.3900 130.0000
53.4000 95.0000
53.4100 110.0000
53.4200 105.0000
53.4300 85.0000
53.4400 65.0000
53.4500 60.0000
53.4600 90.0000
53.4700 80.0000
53.4800 80.0000
53.4900 60.0000
53.5000 60.0000
53.5100 55.0000
53.5200 80.0000
53.5300 75.0000
53.5400 75.0000
53.5500 50.0000
53.5600 50.0000
53.5700 70.0000
53.5800 55.0000
53.5900 90.0000
53.6000 50.0000
53.6100 115.0000
53.6200 70.0000
53.6300 30.0000
53.6400 50.0000
53.6500 55.0000
53.6600 50.0000
53.6700 50.0000
53.6800 55.0000
53.6900 50.0000
53.7000 50.0000
53.7100 40.0000
53.7200 65.0000
53.7300 60.0000
53.7400 50.0000
53.7500 50.0000
53.7600 45.0000
53.7700 45.0000
53.7800 45.0000
53.7900 65.0000
53.8000 50.0000
53.8100 35.0000
53.8200 40.0000
53.8300 35.0000
53.8400 30.0000
53.8500 55.0000
53.8600 40.0000
53.8700 30.0000
53.8800 40.0000
53.8900 35.0000
53.9000 30.0000
53.9100 20.0000
53.9200 20.0000
53.9300 40.0000
53.9400 35.0000
53.9500 25.0000
53.9600 70.0000
53.9700 45.0000
53.9800 40.0000
53.9900 25.0000
54.0000 30.0000
54.0100 25.0000
54.0200 30.0000
54.0300 20.0000
54.0400 35.0000
54.0500 30.0000
54.0600 20.0000
54.0700 20.0000
54.0800 35.0000
54.0900 35.0000
54.1000 40.0000
54.1100 35.0000
54.1200 30.0000
54.1300 25.0000
54.1400 35.0000
54.1500 40.0000
54.1600 45.0000
54.1700 20.0000
54.1800 20.0000
54.1900 25.0000
54.2000 40.0000
54.2100 20.0000
54.2200 20.0000
54.2300 20.0000
54.2400 35.0000
54.2500 30.0000
54.2600 25.0000
54.2700 20.0000
54.2800 20.0000
54.2900 35.0000
54.3000 35.0000
54.3100 35.0000
54.3200 35.0000
54.3300 35.0000
54.3400 50.0000
54.3500 65.0000
54.3600 55.0000
54.3700 55.0000
54.3800 25.0000
54.3900 50.0000
54.4000 55.0000
54.4100 85.0000
54.4200 90.0000
54.4300 85.0000
54.4400 80.0000
54.4500 100.0000
54.4600 150.0000
54.4700 260.0000
54.4800 305.0000
54.4900 360.0000
54.5000 300.0000
54.5100 300.0000
54.5200 260.0000
54.5300 190.0000
54.5400 145.0000
54.5500 85.0000
54.5600 95.0000
54.5700 55.0000
54.5800 40.0000
54.5900 75.0000
54.6000 40.0000
54.6100 25.0000
54.6200 30.0000
54.6300 50.0000
54.6400 75.0000
54.6500 25.0000
54.6600 30.0000
54.6700 30.0000
54.6800 40.0000
54.6900 40.0000
54.7000 40.0000
54.7100 30.0000
54.7200 35.0000
54.7300 40.0000
54.7400 45.0000
54.7500 30.0000
54.7600 40.0000
54.7700 45.0000
54.7800 60.0000
54.7900 25.0000
54.8000 20.0000
54.8100 45.0000
54.8200 30.0000
54.8300 30.0000
54.8400 30.0000
54.8500 40.0000
54.8600 45.0000
54.8700 40.0000
54.8800 30.0000
54.8900 25.0000
54.9000 25.0000
54.9100 20.0000
54.9200 35.0000
54.9300 25.0000
54.9400 35.0000
54.9500 40.0000
54.9600 25.0000
54.9700 25.0000
54.9800 85.0000
54.9900 25.0000
55.0000 30.0000
55.0100 30.0000
55.0200 50.0000
55.0300 35.0000
55.0400 25.0000
55.0500 20.0000
55.0600 35.0000
55.0700 35.0000
55.0800 30.0000
55.0900 40.0000
55.1000 45.0000
55.1100 20.0000
55.1200 35.0000
55.1300 45.0000
55.1400 20.0000
55.1500 40.0000
55.1600 20.0000
55.1700 35.0000
55.1800 30.0000
55.1900 20.0000
55.2000 25.0000
55.2100 30.0000
55.2200 30.0000
55.2300 35.0000
55.2400 25.0000
55.2500 30.0000
55.2600 15.0000
55.2700 40.0000
55.2800 40.0000
55.2900 40.0000
55.3000 30.0000
55.3100 25.0000
55.3200 35.0000
55.3300 40.0000
55.3400 25.0000
55.3500 45.0000
55.3600 40.0000
55.3700 50.0000
55.3800 35.0000
55.3900 25.0000
55.4000 25.0000
55.4100 35.0000
55.4200 30.0000
55.4300 30.0000
55.4400 60.0000
55.4500 40.0000
55.4600 45.0000
55.4700 45.0000
55.4800 20.0000
55.4900 40.0000
55.5000 15.0000
55.5100 30.0000
55.5200 20.0000
55.5300 25.0000
55.5400 45.0000
55.5500 55.0000
55.5600 45.0000
55.5700 45.0000
55.5800 45.0000
55.5900 35.0000
55.6000 15.0000
55.6100 15.0000
55.6200 15.0000
55.6300 30.0000
55.6400 20.0000
55.6500 35.0000
55.6600 20.0000
55.6700 30.0000
55.6800 30.0000
55.6900 35.0000
55.7000 55.0000
55.7100 45.0000
55.7200 15.0000
55.7300 45.0000
55.7400 25.0000
55.7500 25.0000
55.7600 35.0000
55.7700 30.0000
55.7800 30.0000
55.7900 15.0000
55.8000 35.0000
55.8100 40.0000
55.8200 25.0000
55.8300 15.0000
55.8400 25.0000
55.8500 10.0000
55.8600 35.0000
55.8700 35.0000
55.8800 35.0000
55.8900 15.0000
55.9000 35.0000
55.9100 30.0000
55.9200 35.0000
55.9300 30.0000
55.9400 45.0000
55.9500 35.0000
55.9600 25.0000
55.9700 25.0000
55.9800 25.0000
55.9900 30.0000
56.0000 30.0000
56.0100 25.0000
56.0200 45.0000
56.0300 45.0000
56.0400 25.0000
56.0500 20.0000
56.0600 50.0000
56.0700 30.0000
56.0800 40.0000
56.0900 25.0000
56.1000 20.0000
56.1100 30.0000
56.1200 55.0000
56.1300 25.0000
56.1400 25.0000
56.1500 35.0000
56.1600 30.0000
56.1700 20.0000
56.1800 20.0000
56.1900 20.0000
56.2000 20.0000
56.2100 45.0000
56.2200 35.0000
56.2300 20.0000
56.2400 30.0000
56.2500 10.0000
56.2600 15.0000
56.2700 30.0000
56.2800 30.0000
56.2900 35.0000
56.3000 55.0000
56.3100 30.0000
56.3200 60.0000
56.3300 75.0000
56.3400 60.0000
56.3500 25.0000
56.3600 35.0000
56.3700 80.0000
56.3800 70.0000
56.3900 80.0000
56.4000 100.0000
56.4100 170.0000
56.4200 190.0000
56.4300 185.0000
56.4400 305.0000
56.4500 350.0000
56.4600 225.0000
56.4700 250.0000
56.4800 195.0000
56.4900 115.0000
56.5000 110.0000
56.5100 75.0000
56.5200 105.0000
56.5300 70.0000
56.5400 50.0000
56.5500 25.0000
56.5600 40.0000
56.5700 20.0000
56.5800 50.0000
56.5900 30.0000
56.6000 50.0000
56.6100 30.0000
56.6200 45.0000
56.6300 20.0000
56.6400 20.0000
56.6500 40.0000
56.6600 45.0000
56.6700 35.0000
56.6800 50.0000
56.6900 45.0000
56.7000 60.0000
56.7100 35.0000
56.7200 60.0000
56.7300 35.0000
56.7400 40.0000
56.7500 55.0000
56.7600 55.0000
56.7700 45.0000
56.7800 45.0000
56.7900 30.0000
56.8000 30.0000
56.8100 70.0000
56.8200 45.0000
56.8300 45.0000
56.8400 15.0000
56.8500 75.0000
56.8600 35.0000
56.8700 35.0000
56.8800 50.0000
56.8900 50.0000
56.9000 30.0000
56.9100 45.0000
56.9200 40.0000
56.9300 45.0000
56.9400 15.0000
56.9500 30.0000
56.9600 40.0000
56.9700 30.0000
56.9800 45.0000
56.9900 20.0000
57.0000 40.0000
57.0100 20.0000
57.0200 25.0000
57.0300 50.0000
57.0400 65.0000
57.0500 45.0000
57.0600 40.0000
57.0700 30.0000
57.0800 40.0000
57.0900 35.0000
57.1000 40.0000
57.1100 25.0000
57.1200 55.0000
57.1300 30.0000
57.1400 25.0000
57.1500 15.0000
57.1600 25.0000
57.1700 35.0000
57.1800 35.0000
57.1900 15.0000
57.2000 15.0000
57.2100 30.0000
57.2200 15.0000
57.2300 25.0000
57.2400 35.0000
57.2500 30.0000
57.2600 20.0000
57.2700 15.0000
57.2800 15.0000
57.2900 30.0000
57.3000 20.0000
57.3100 30.0000
57.3200 40.0000
57.3300 20.0000
57.3400 20.0000
57.3500 15.0000
57.3600 35.0000
57.3700 25.0000
57.3800 35.0000
57.3900 50.0000
57.4000 40.0000
57.4100 20.0000
57.4200 50.0000
57.4300 60.0000
57.4400 40.0000
57.4500 65.0000
57.4600 50.0000
57.4700 65.0000
57.4800 50.0000
57.4900 65.0000
57.5000 70.0000
57.5100 100.0000
57.5200 140.0000
57.5300 210.0000
57.5400 270.0000
57.5500 340.0000
57.5600 480.0000
57.5700 615.0000
57.5800 745.0000
57.5900 790.0000
57.6000 820.0000
57.6100 700.0000
57.6200 610.0000
57.6300 425.0000
57.6400 235.0000
57.6500 170.0000
57.6600 130.0000
57.6700 70.0000
57.6800 65.0000
57.6900 50.0000
57.7000 60.0000
57.7100 25.0000
57.7200 20.0000
57.7300 35.0000
57.7400 25.0000
57.7500 40.0000
57.7600 65.0000
57.7700 35.0000
57.7800 10.0000
57.7900 15.0000
57.8000 40.0000
57.8100 30.0000
57.8200 60.0000
57.8300 25.0000
57.8400 25.0000
57.8500 40.0000
57.8600 30.0000
57.8700 35.0000
57.8800 20.0000
57.8900 30.0000
57.9000 60.0000
57.9100 25.0000
57.9200 55.0000
57.9300 30.0000
57.9400 65.0000
57.9500 75.0000
57.9600 65.0000
57.9700 65.0000
57.9800 100.0000
57.9900 65.0000
58.0000 65.0000
58.0100 65.0000
58.0200 70.0000
58.0300 55.0000
58.0400 55.0000
58.0500 45.0000
58.0600 45.0000
58.0700 55.0000
58.0800 50.0000
58.0900 65.0000
58.1000 85.0000
58.1100 55.0000
58.1200 55.0000
58.1300 70.0000
58.1400 60.0000
58.1500 40.0000
58.1600 65.0000
58.1700 50.0000
58.1800 55.0000
58.1900 45.0000
58.2000 75.0000
58.2100 60.0000
58.2200 60.0000
58.2300 60.0000
58.2400 50.0000
58.2500 35.0000
58.2600 70.0000
58.2700 45.0000
58.2800 60.0000
58.2900 50.0000
58.3000 65.0000
58.3100 60.0000
58.3200 60.0000
58.3300 60.0000
58.3400 50.0000
58.3500 25.0000
58.3600 50.0000
58.3700 40.0000
58.3800 45.0000
58.3900 55.0000
58.4000 45.0000
58.4100 55.0000
58.4200 40.0000
58.4300 30.0000
58.4400 25.0000
58.4500 25.0000
58.4600 60.0000
58.4700 35.0000
58.4800 50.0000
58.4900 50.0000
58.5000 45.0000
58.5100 85.0000
58.5200 25.0000
58.5300 35.0000
58.5400 65.0000
58.5500 50.0000
58.5600 30.0000
58.5700 40.0000
58.5800 30.0000
58.5900 35.0000
58.6000 40.0000
58.6100 20.0000
58.6200 15.0000
58.6300 25.0000
58.6400 40.0000
58.6500 35.0000
58.6600 20.0000
58.6700 10.0000
58.6800 30.0000
58.6900 35.0000
58.7000 30.0000
58.7100 35.0000
58.7200 45.0000
58.7300 25.0000
58.7400 45.0000
58.7500 35.0000
58.7600 55.0000
58.7700 50.0000
58.7800 35.0000
58.7900 40.0000
58.8000 35.0000
58.8100 40.0000
58.8200 45.0000
58.8300 55.0000
58.8400 25.0000
58.8500 45.0000
58.8600 35.0000
58.8700 35.0000
58.8800 60.0000
58.8900 40.0000
58.9000 40.0000
58.9100 15.0000
58.9200 45.0000
58.9300 55.0000
58.9400 45.0000
58.9500 20.0000
58.9600 45.0000
58.9700 25.0000
58.9800 30.0000
58.9900 30.0000
59.0000 35.0000
59.0100 45.0000
59.0200 60.0000
59.0300 60.0000
59.0400 30.0000
59.0500 25.0000
59.0600 25.0000
59.0700 30.0000
59.0800 40.0000
59.0900 50.0000
59.1000 20.0000
59.1100 20.0000
59.1200 30.0000
59.1300 35.0000
59.1400 30.0000
59.1500 45.0000
59.1600 30.0000
59.1700 35.0000
59.1800 15.0000
59.1900 25.0000
59.2000 45.0000
59.2100 25.0000
59.2200 15.0000
59.2300 50.0000
59.2400 45.0000
59.2500 20.0000
59.2600 40.0000
59.2700 20.0000
59.2800 35.0000
59.2900 30.0000
59.3000 25.0000
59.3100 40.0000
59.3200 45.0000
59.3300 15.0000
59.3400 35.0000
59.3500 40.0000
59.3600 50.0000
59.3700 15.0000
59.3800 25.0000
59.3900 30.0000
59.4000 50.0000
59.4100 45.0000
59.4200 40.0000
59.4300 40.0000
59.4400 30.0000
59.4500 35.0000
59.4600 50.0000
59.4700 30.0000
59.4800 35.0000
59.4900 40.0000
59.5000 30.0000
59.5100 40.0000
59.5200 55.0000
59.5300 20.0000
59.5400 15.0000
59.5500 35.0000
59.5600 30.0000
59.5700 35.0000
59.5800 30.0000
59.5900 25.0000
59.6000 30.0000
59.6100 35.0000
59.6200 45.0000
59.6300 50.0000
59.6400 30.0000
59.6500 45.0000
59.6600 40.0000
59.6700 20.0000
59.6800 50.0000
59.6900 15.0000
59.7000 45.0000
59.7100 30.0000
59.7200 35.0000
59.7300 15.0000
59.7400 15.0000
59.7500 35.0000
59.7600 40.0000
59.7700 30.0000
59.7800 30.0000
59.7900 35.0000
59.8000 25.0000
59.8100 45.0000
59.8200 25.0000
59.8300 15.0000
59.8400 20.0000
59.8500 25.0000
59.8600 25.0000
59.8700 50.0000
59.8800 55.0000
59.8900 35.0000
59.9000 5.0000
59.9100 25.0000
59.9200 30.0000
59.9300 50.0000
59.9400 15.0000
59.9500 15.0000
59.9600 25.0000
59.9700 10.0000
59.9800 25.0000
59.9900 20.0000
60.0000 25.0000
60.0100 40.0000
60.0200 30.0000
60.0300 30.0000
60.0400 10.0000
60.0500 40.0000
60.0600 25.0000
60.0700 30.0000
60.0800 55.0000
60.0900 45.0000
60.1000 20.0000
60.1100 25.0000
60.1200 40.0000
60.1300 25.0000
60.1400 25.0000
60.1500 40.0000
60.1600 30.0000
60.1700 35.0000
60.1800 50.0000
60.1900 35.0000
60.2000 30.0000
60.2100 35.0000
60.2200 30.0000
60.2300 40.0000
60.2400 15.0000
60.2500 0.0000
60.2600 10.0000
60.2700 15.0000
60.2800 15.0000
60.2900 10.0000
60.3000 30.0000
60.3100 30.0000
60.3200 20.0000
60.3300 5.0000
60.3400 35.0000
60.3500 55.0000
60.3600 35.0000
60.3700 45.0000
60.3800 35.0000
60.3900 20.0000
60.4000 20.0000
60.4100 55.0000
60.4200 35.0000
60.4300 45.0000
60.4400 35.0000
60.4500 25.0000
60.4600 45.0000
60.4700 35.0000
60.4800 35.0000
60.4900 20.0000
60.5000 35.0000
60.5100 50.0000
60.5200 65.0000
60.5300 50.0000
60.5400 90.0000
60.5500 85.0000
60.5600 85.0000
60.5700 85.0000
60.5800 135.0000
60.5900 60.0000
60.6000 105.0000
60.6100 65.0000
60.6200 75.0000
60.6300 50.0000
60.6400 35.0000
60.6500 50.0000
60.6600 40.0000
60.6700 35.0000
60.6800 30.0000
60.6900 20.0000
60.7000 25.0000
60.7100 25.0000
60.7200 50.0000
60.7300 35.0000
60.7400 40.0000
60.7500 25.0000
60.7600 35.0000
60.7700 30.0000
60.7800 35.0000
60.7900 20.0000
60.8000 30.0000
60.8100 35.0000
60.8200 35.0000
60.8300 15.0000
60.8400 25.0000
60.8500 5.0000
60.8600 25.0000
60.8700 25.0000
60.8800 35.0000
60.8900 45.0000
60.9000 35.0000
60.9100 45.0000
60.9200 40.0000
60.9300 15.0000
60.9400 40.0000
60.9500 40.0000
60.9600 15.0000
60.9700 20.0000
60.9800 45.0000
60.9900 50.0000
61.0000 45.0000
61.0100 30.0000
61.0200 30.0000
61.0300 40.0000
61.0400 50.0000
61.0500 40.0000
61.0600 15.0000
61.0700 35.0000
61.0800 25.0000
61.0900 20.0000
61.1000 25.0000
61.1100 40.0000
61.1200 45.0000
61.1300 40.0000
61.1400 30.0000
61.1500 35.0000
61.1600 40.0000
61.1700 30.0000
61.1800 20.0000
61.1900 20.0000
61.2000 35.0000
61.2100 40.0000
61.2200 30.0000
61.2300 20.0000
61.2400 25.0000
61.2500 35.0000
61.2600 35.0000
61.2700 35.0000
61.2800 30.0000
61.2900 30.0000
61.3000 30.0000
61.3100 45.0000
61.3200 30.0000
61.3300 40.0000
61.3400 25.0000
61.3500 35.0000
61.3600 30.0000
61.3700 55.0000
61.3800 40.0000
61.3900 45.0000
61.4000 40.0000
61.4100 40.0000
61.4200 40.0000
61.4300 15.0000
61.4400 25.0000
61.4500 25.0000
61.4600 15.0000
61.4700 25.0000
61.4800 45.0000
61.4900 40.0000
61.5000 25.0000
61.5100 60.0000
61.5200 40.0000
61.5300 10.0000
61.5400 35.0000
61.5500 35.0000
61.5600 25.0000
61.5700 25.0000
61.5800 15.0000
61.5900 45.0000
61.6000 20.0000
61.6100 35.0000
61.6200 20.0000
61.6300 35.0000
61.6400 50.0000
61.6500 15.0000
61.6600 10.0000
61.6700 40.0000
61.6800 30.0000
61.6900 40.0000
61.7000 40.0000
61.7100 40.0000
61.7200 45.0000
61.7300 65.0000
61.7400 35.0000
61.7500 50.0000
61.7600 40.0000
61.7700 45.0000
61.7800 35.0000
61.7900 45.0000
61.8000 25.0000
61.8100 20.0000
61.8200 40.0000
61.8300 55.0000
61.8400 20.0000
61.8500 25.0000
61.8600 35.0000
61.8700 30.0000
61.8800 35.0000
61.8900 50.0000
61.9000 25.0000
61.9100 15.0000
61.9200 30.0000
61.9300 25.0000
61.9400 35.0000
61.9500 45.0000
61.9600 50.0000
61.9700 35.0000
61.9800 60.0000
61.9900 35.0000
62.0000 30.0000
62.0100 40.0000
62.0200 30.0000
62.0300 40.0000
62.0400 35.0000
62.0500 50.0000
62.0600 35.0000
62.0700 30.0000
62.0800 30.0000
62.0900 40.0000
62.1000 20.0000
62.1100 25.0000
62.1200 35.0000
62.1300 10.0000
62.1400 35.0000
62.1500 20.0000
62.1600 15.0000
62.1700 20.0000
62.1800 25.0000
62.1900 15.0000
62.2000 35.0000
62.2100 30.0000
62.2200 40.0000
62.2300 20.0000
62.2400 40.0000
62.2500 45.0000
62.2600 35.0000
62.2700 35.0000
62.2800 15.0000
62.2900 25.0000
62.3000 10.0000
62.3100 35.0000
62.3200 50.0000
62.3300 50.0000
62.3400 60.0000
62.3500 45.0000
62.3600 60.0000
62.3700 60.0000
62.3800 95.0000
62.3900 70.0000
62.4000 115.0000
62.4100 160.0000
62.4200 110.0000
62.4300 70.0000
62.4400 55.0000
62.4500 55.0000
62.4600 95.0000
62.4700 45.0000
62.4800 35.0000
62.4900 55.0000
62.5000 60.0000
62.5100 50.0000
62.5200 50.0000
62.5300 40.0000
62.5400 55.0000
62.5500 30.0000
62.5600 30.0000
62.5700 40.0000
62.5800 20.0000
62.5900 30.0000
62.6000 40.0000
62.6100 60.0000
62.6200 40.0000
62.6300 50.0000
62.6400 45.0000
62.6500 30.0000
62.6600 25.0000
62.6700 20.0000
62.6800 40.0000
62.6900 30.0000
62.7000 25.0000
62.7100 30.0000
62.7200 30.0000
62.7300 45.0000
62.7400 50.0000
62.7500 50.0000
62.7600 60.0000
62.7700 50.0000
62.7800 25.0000
62.7900 15.0000
62.8000 30.0000
62.8100 35.0000
62.8200 45.0000
62.8300 40.0000
62.8400 30.0000
62.8500 40.0000
62.8600 45.0000
62.8700 20.0000
62.8800 35.0000
62.8900 70.0000
62.9000 55.0000
62.9100 50.0000
62.9200 35.0000
62.9300 35.0000
62.9400 45.0000
62.9500 40.0000
62.9600 30.0000
62.9700 65.0000
62.9800 40.0000
62.9900 35.0000
63.0000 40.0000
63.0100 20.0000
63.0200 25.0000
63.0300 30.0000
63.0400 45.0000
63.0500 35.0000
63.0600 40.0000
63.0700 50.0000
63.0800 70.0000
63.0900 65.0000
63.1000 60.0000
63.1100 45.0000
63.1200 35.0000
63.1300 55.0000
63.1400 30.0000
63.1500 50.0000
63.1600 40.0000
63.1700 50.0000
63.1800 25.0000
63.1900 40.0000
63.2000 25.0000
63.2100 35.0000
63.2200 30.0000
63.2300 35.0000
63.2400 55.0000
63.2500 60.0000
63.2600 50.0000
63.2700 50.0000
63.2800 20.0000
63.2900 40.0000
63.3000 55.0000
63.3100 60.0000
63.3200 50.0000
63.3300 30.0000
63.3400 65.0000
63.3500 40.0000
63.3600 40.0000
63.3700 45.0000
63.3800 45.0000
63.3900 70.0000
63.4000 65.0000
63.4100 55.0000
63.4200 95.0000
63.4300 110.0000
63.4400 120.0000
63.4500 155.0000
63.4600 170.0000
63.4700 255.0000
63.4800 240.0000
63.4900 170.0000
63.5000 265.0000
63.5100 230.0000
63.5200 200.0000
63.5300 135.0000
63.5400 100.0000
63.5500 70.0000
63.5600 75.0000
63.5700 70.0000
63.5800 95.0000
63.5900 60.0000
63.6000 40.0000
63.6100 55.0000
63.6200 75.0000
63.6300 40.0000
63.6400 65.0000
63.6500 50.0000
63.6600 45.0000
63.6700 50.0000
63.6800 35.0000
63.6900 45.0000
63.7000 40.0000
63.7100 25.0000
63.7200 50.0000
63.7300 70.0000
63.7400 50.0000
63.7500 40.0000
63.7600 50.0000
63.7700 65.0000
63.7800 40.0000
63.7900 35.0000
63.8000 50.0000
63.8100 40.0000
63.8200 55.0000
63.8300 30.0000
63.8400 40.0000
63.8500 50.0000
63.8600 45.0000
63.8700 35.0000
63.8800 45.0000
63.8900 35.0000
63.9000 45.0000
63.9100 45.0000
63.9200 45.0000
63.9300 40.0000
63.9400 25.0000
63.9500 30.0000
63.9600 65.0000
63.9700 55.0000
63.9800 15.0000
63.9900 20.0000
64.0000 20.0000
64.0100 30.0000
64.0200 30.0000
64.0300 45.0000
64.0400 35.0000
64.0500 90.0000
64.0600 55.0000
64.0700 40.0000
64.0800 35.0000
64.0900 30.0000
64.1000 30.0000
64.1100 60.0000
64.1200 35.0000
64.1300 25.0000
64.1400 30.0000
64.1500 60.0000
64.1600 35.0000
64.1700 50.0000
64.1800 35.0000
64.1900 35.0000
64.2000 45.0000
64.2100 30.0000
64.2200 30.0000
64.2300 40.0000
64.2400 30.0000
64.2500 15.0000
64.2600 50.0000
64.2700 30.0000
64.2800 25.0000
64.2900 25.0000
64.3000 20.0000
64.3100 35.0000
64.3200 35.0000
64.3300 20.0000
64.3400 15.0000
64.3500 40.0000
64.3600 40.0000
64.3700 20.0000
64.3800 50.0000
64.3900 25.0000
64.4000 20.0000
64.4100 35.0000
64.4200 40.0000
64.4300 40.0000
64.4400 55.0000
64.4500 70.0000
64.4600 55.0000
64.4700 60.0000
64.4800 55.0000
64.4900 65.0000
64.5000 35.0000
64.5100 30.0000
64.5200 55.0000
64.5300 30.0000
64.5400 25.0000
64.5500 30.0000
64.5600 25.0000
64.5700 35.0000
64.5800 25.0000
64.5900 35.0000
64.6000 45.0000
64.6100 50.0000
64.6200 45.0000
64.6300 25.0000
64.6400 25.0000
64.6500 30.0000
64.6600 30.0000
64.6700 20.0000
64.6800 40.0000
64.6900 30.0000
64.7000 25.0000
64.7100 35.0000
64.7200 40.0000
64.7300 50.0000
64.7400 55.0000
64.7500 40.0000
64.7600 30.0000
64.7700 25.0000
64.7800 30.0000
64.7900 45.0000
64.8000 30.0000
64.8100 25.0000
64.8200 40.0000
64.8300 5.0000
64.8400 20.0000
64.8500 25.0000
64.8600 25.0000
64.8700 60.0000
64.8800 35.0000
64.8900 45.0000
64.9000 15.0000
64.9100 25.0000
64.9200 25.0000
64.9300 45.0000
64.9400 20.0000
64.9500 25.0000
64.9600 40.0000
64.9700 30.0000
64.9800 20.0000
64.9900 35.0000
65.0000 40.0000
65.0100 35.0000
65.0200 30.0000
65.0300 40.0000
65.0400 45.0000
65.0500 30.0000
65.0600 30.0000
65.0700 50.0000
65.0800 40.0000
65.0900 50.0000
65.1000 35.0000
65.1100 25.0000
65.1200 50.0000
65.1300 35.0000
65.1400 40.0000
65.1500 50.0000
65.1600 55.0000
65.1700 65.0000
65.1800 70.0000
65.1900 50.0000
65.2000 90.0000
65.2100 95.0000
65.2200 95.0000
65.2300 175.0000
65.2400 200.0000
65.2500 210.0000
65.2600 200.0000
65.2700 170.0000
65.2800 245.0000
65.2900 220.0000
65.3000 165.0000
65.3100 100.0000
65.3200 65.0000
65.3300 65.0000
65.3400 55.0000
65.3500 50.0000
65.3600 25.0000
65.3700 20.0000
65.3800 30.0000
65.3900 30.0000
65.4000 20.0000
65.4100 60.0000
65.4200 55.0000
65.4300 45.0000
65.4400 35.0000
65.4500 35.0000
65.4600 30.0000
65.4700 15.0000
65.4800 60.0000
65.4900 65.0000
65.5000 35.0000
65.5100 15.0000
65.5200 35.0000
65.5300 50.0000
65.5400 50.0000
65.5500 60.0000
65.5600 65.0000
65.5700 40.0000
65.5800 45.0000
65.5900 55.0000
65.6000 45.0000
65.6100 35.0000
65.6200 75.0000
65.6300 35.0000
65.6400 50.0000
65.6500 40.0000
65.6600 60.0000
65.6700 45.0000
65.6800 50.0000
65.6900 40.0000
65.7000 25.0000
65.7100 30.0000
65.7200 25.0000
65.7300 45.0000
65.7400 30.0000
65.7500 55.0000
65.7600 35.0000
65.7700 35.0000
65.7800 60.0000
65.7900 20.0000
65.8000 45.0000
65.8100 30.0000
65.8200 35.0000
65.8300 40.0000
65.8400 30.0000
65.8500 30.0000
65.8600 35.0000
65.8700 25.0000
65.8800 40.0000
65.8900 35.0000
65.9000 25.0000
65.9100 30.0000
65.9200 35.0000
65.9300 40.0000
65.9400 45.0000
65.9500 35.0000
65.9600 30.0000
65.9700 40.0000
65.9800 35.0000
65.9900 25.0000
66.0000 30.0000
66.0100 50.0000
66.0200 35.0000
66.0300 30.0000
66.0400 55.0000
66.0500 35.0000
66.0600 35.0000
66.0700 50.0000
66.0800 60.0000
66.0900 45.0000
66.1000 35.0000
66.1100 25.0000
66.1200 25.0000
66.1300 50.0000
66.1400 50.0000
66.1500 60.0000
66.1600 20.0000
66.1700 40.0000
66.1800 40.0000
66.1900 70.0000
66.2000 70.0000
66.2100 55.0000
66.2200 45.0000
66.2300 40.0000
66.2400 45.0000
66.2500 55.0000
66.2600 35.0000
66.2700 50.0000
66.2800 65.0000
66.2900 30.0000
66.3000 60.0000
66.3100 55.0000
66.3200 55.0000
66.3300 60.0000
66.3400 65.0000
66.3500 45.0000
66.3600 65.0000
66.3700 80.0000
66.3800 40.0000
66.3900 55.0000
66.4000 30.0000
66.4100 65.0000
66.4200 50.0000
66.4300 40.0000
66.4400 55.0000
66.4500 40.0000
66.4600 35.0000
66.4700 30.0000
66.4800 30.0000
66.4900 45.0000
66.5000 35.0000
66.5100 40.0000
66.5200 60.0000
66.5300 40.0000
66.5400 65.0000
66.5500 50.0000
66.5600 80.0000
66.5700 95.0000
66.5800 45.0000
66.5900 130.0000
66.6000 110.0000
66.6100 125.0000
66.6200 235.0000
66.6300 330.0000
66.6400 410.0000
66.6500 555.0000
66.6600 605.0000
66.6700 660.0000
66.6800 815.0000
66.6900 740.0000
66.7000 560.0000
66.7100 425.0000
66.7200 315.0000
66.7300 205.0000
66.7400 180.0000
66.7500 155.0000
66.7600 70.0000
66.7700 90.0000
66.7800 100.0000
66.7900 45.0000
66.8000 60.0000
66.8100 50.0000
66.8200 35.0000
66.8300 70.0000
66.8400 35.0000
66.8500 45.0000
66.8600 55.0000
66.8700 45.0000
66.8800 65.0000
66.8900 55.0000
66.9000 35.0000
66.9100 60.0000
66.9200 45.0000
66.9300 45.0000
66.9400 70.0000
66.9500 30.0000
66.9600 35.0000
66.9700 40.0000
66.9800 55.0000
66.9900 35.0000
67.0000 30.0000
67.0100 10.0000
67.0200 20.0000
67.0300 30.0000
67.0400 25.0000
67.0500 55.0000
67.0600 30.0000
67.0700 45.0000
67.0800 15.0000
67.0900 25.0000
67.1000 35.0000
67.1100 30.0000
67.1200 25.0000
67.1300 35.0000
67.1400 25.0000
67.1500 25.0000
67.1600 20.0000
67.1700 15.0000
67.1800 25.0000
67.1900 40.0000
67.2000 30.0000
67.2100 25.0000
67.2200 20.0000
67.2300 40.0000
67.2400 35.0000
67.2500 15.0000
67.2600 10.0000
67.2700 20.0000
67.2800 50.0000
67.2900 40.0000
67.3000 40.0000
67.3100 40.0000
67.3200 25.0000
67.3300 40.0000
67.3400 35.0000
67.3500 30.0000
67.3600 30.0000
67.3700 20.0000
67.3800 20.0000
67.3900 30.0000
67.4000 30.0000
67.4100 35.0000
67.4200 30.0000
67.4300 35.0000
67.4400 30.0000
67.4500 35.0000
67.4600 30.0000
67.4700 30.0000
67.4800 30.0000
67.4900 25.0000
67.5000 35.0000
67.5100 30.0000
67.5200 15.0000
67.5300 25.0000
67.5400 5.0000
67.5500 25.0000
67.5600 35.0000
67.5700 15.0000
67.5800 60.0000
67.5900 20.0000
67.6000 15.0000
67.6100 30.0000
67.6200 15.0000
67.6300 30.0000
67.6400 40.0000
67.6500 15.0000
67.6600 20.0000
67.6700 25.0000
67.6800 20.0000
67.6900 45.0000
67.7000 25.0000
67.7100 20.0000
67.7200 15.0000
67.7300 25.0000
67.7400 30.0000
67.7500 30.0000
67.7600 20.0000
67.7700 15.0000
67.7800 20.0000
67.7900 35.0000
67.8000 15.0000
67.8100 40.0000
67.8200 35.0000
67.8300 15.0000
67.8400 35.0000
67.8500 30.0000
67.8600 50.0000
67.8700 25.0000
67.8800 35.0000
67.8900 50.0000
67.9000 30.0000
67.9100 50.0000
67.9200 30.0000
67.9300 55.0000
67.9400 55.0000
67.9500 40.0000
67.9600 25.0000
67.9700 40.0000
67.9800 25.0000
67.9900 25.0000
68.0000 50.0000
68.0100 25.0000
68.0200 20.0000
68.0300 55.0000
68.0400 40.0000
68.0500 30.0000
68.0600 35.0000
68.0700 45.0000
68.0800 20.0000
68.0900 20.0000
68.1000 35.0000
68.1100 15.0000
68.1200 35.0000
68.1300 25.0000
68.1400 50.0000
68.1500 30.0000
68.1600 40.0000
68.1700 30.0000
68.1800 35.0000
68.1900 40.0000
68.2000 60.0000
68.2100 60.0000
68.2200 30.0000
68.2300 75.0000
68.2400 50.0000
68.2500 40.0000
68.2600 50.0000
68.2700 75.0000
68.2800 75.0000
68.2900 70.0000
68.3000 55.0000
68.3100 30.0000
68.3200 30.0000
68.3300 35.0000
68.3400 55.0000
68.3500 50.0000
68.3600 35.0000
68.3700 45.0000
68.3800 35.0000
68.3900 50.0000
68.4000 55.0000
68.4100 35.0000
68.4200 40.0000
68.4300 45.0000
68.4400 40.0000
68.4500 45.0000
68.4600 30.0000
68.4700 75.0000
68.4800 45.0000
68.4900 45.0000
68.5000 80.0000
68.5100 35.0000
68.5200 35.0000
68.5300 45.0000
68.5400 45.0000
68.5500 55.0000
68.5600 50.0000
68.5700 55.0000
68.5800 20.0000
68.5900 55.0000
68.6000 45.0000
68.6100 35.0000
68.6200 10.0000
68.6300 15.0000
68.6400 25.0000
68.6500 30.0000
68.6600 45.0000
68.6700 15.0000
68.6800 25.0000
68.6900 40.0000
68.7000 30.0000
68.7100 15.0000
68.7200 40.0000
68.7300 65.0000
68.7400 35.0000
68.7500 30.0000
68.7600 20.0000
68.7700 15.0000
68.7800 25.0000
68.7900 50.0000
68.8000 30.0000
68.8100 25.0000
68.8200 40.0000
68.8300 45.0000
68.8400 40.0000
68.8500 25.0000
68.8600 40.0000
68.8700 45.0000
68.8800 35.0000
68.8900 40.0000
68.9000 25.0000
68.9100 45.0000
68.9200 30.0000
68.9300 55.0000
68.9400 30.0000
68.9500 30.0000
68.9600 45.0000
68.9700 45.0000
68.9800 45.0000
68.9900 30.0000
69.0000 40.0000
69.0100 35.0000
69.0200 55.0000
69.0300 70.0000
69.0400 15.0000
69.0500 75.0000
69.0600 60.0000
69.0700 80.0000
69.0800 120.0000
69.0900 55.0000
69.1000 95.0000
69.1100 135.0000
69.1200 50.0000
69.1300 80.0000
69.1400 75.0000
69.1500 65.0000
69.1600 50.0000
69.1700 50.0000
69.1800 25.0000
69.1900 20.0000
69.2000 65.0000
69.2100 40.0000
69.2200 40.0000
69.2300 35.0000
69.2400 70.0000
69.2500 35.0000
69.2600 45.0000
69.2700 65.0000
69.2800 85.0000
69.2900 50.0000
69.3000 45.0000
69.3100 35.0000
69.3200 45.0000
69.3300 35.0000
69.3400 45.0000
69.3500 35.0000
69.3600 45.0000
69.3700 25.0000
69.3800 50.0000
69.3900 45.0000
69.4000 70.0000
69.4100 65.0000
69.4200 75.0000
69.4300 90.0000
69.4400 90.0000
69.4500 95.0000
69.4600 85.0000
69.4700 55.0000
69.4800 50.0000
69.4900 85.0000
69.5000 50.0000
69.5100 65.0000
69.5200 45.0000
69.5300 45.0000
69.5400 40.0000
69.5500 50.0000
69.5600 45.0000
69.5700 45.0000
69.5800 40.0000
69.5900 40.0000
69.6000 50.0000
69.6100 35.0000
69.6200 50.0000
69.6300 50.0000
69.6400 30.0000
69.6500 35.0000
69.6600 45.0000
69.6700 50.0000
69.6800 55.0000
69.6900 30.0000
69.7000 35.0000
69.7100 50.0000
69.7200 25.0000
69.7300 30.0000
69.7400 30.0000
69.7500 40.0000
69.7600 40.0000
69.7700 15.0000
69.7800 60.0000
69.7900 45.0000
69.8000 55.0000
69.8100 50.0000
69.8200 30.0000
69.8300 45.0000
69.8400 35.0000
69.8500 25.0000
69.8600 55.0000
69.8700 45.0000
69.8800 45.0000
69.8900 40.0000
69.9000 60.0000
69.9100 45.0000
69.9200 40.0000
69.9300 30.0000
69.9400 35.0000
69.9500 45.0000
69.9600 30.0000
69.9700 70.0000
69.9800 50.0000
69.9900 45.0000
70.0000 40.0000
70.0100 55.0000
70.0200 10.0000
70.0300 20.0000
70.0400 30.0000
70.0500 30.0000
70.0600 30.0000
70.0700 50.0000
70.0800 40.0000
70.0900 20.0000
70.1000 25.0000
70.1100 35.0000
70.1200 30.0000
70.1300 25.0000
70.1400 15.0000
70.1500 30.0000
70.1600 45.0000
70.1700 15.0000
70.1800 50.0000
70.1900 30.0000
70.2000 40.0000
70.2100 25.0000
70.2200 25.0000
70.2300 25.0000
70.2400 90.0000
70.2500 30.0000
70.2600 60.0000
70.2700 80.0000
70.2800 55.0000
70.2900 55.0000
70.3000 45.0000
70.3100 50.0000
70.3200 60.0000
70.3300 65.0000
70.3400 35.0000
70.3500 65.0000
70.3600 135.0000
70.3700 95.0000
70.3800 140.0000
70.3900 135.0000
70.4000 140.0000
70.4100 135.0000
70.4200 80.0000
70.4300 85.0000
70.4400 60.0000
70.4500 60.0000
70.4600 65.0000
70.4700 45.0000
70.4800 55.0000
70.4900 55.0000
70.5000 40.0000
70.5100 25.0000
70.5200 30.0000
70.5300 40.0000
70.5400 50.0000
70.5500 15.0000
70.5600 25.0000
70.5700 50.0000
70.5800 75.0000
70.5900 70.0000
70.6000 50.0000
70.6100 65.0000
70.6200 70.0000
70.6300 30.0000
70.6400 35.0000
70.6500 35.0000
70.6600 35.0000
70.6700 60.0000
70.6800 70.0000
70.6900 55.0000
70.7000 80.0000
70.7100 80.0000
70.7200 85.0000
70.7300 125.0000
70.7400 130.0000
70.7500 200.0000
70.7600 205.0000
70.7700 240.0000
70.7800 315.0000
70.7900 410.0000
70.8000 450.0000
70.8100 460.0000
70.8200 360.0000
70.8300 355.0000
70.8400 395.0000
70.8500 350.0000
70.8600 245.0000
70.8700 215.0000
70.8800 170.0000
70.8900 180.0000
70.9000 105.0000
70.9100 85.0000
70.9200 60.0000
70.9300 50.0000
70.9400 50.0000
70.9500 85.0000
70.9600 35.0000
70.9700 35.0000
70.9800 70.0000
70.9900 55.0000
71.0000 50.0000
71.0100 55.0000
71.0200 50.0000
71.0300 30.0000
71.0400 85.0000
71.0500 50.0000
71.0600 55.0000
71.0700 55.0000
71.0800 45.0000
71.0900 40.0000
71.1000 50.0000
71.1100 55.0000
71.1200 40.0000
71.1300 40.0000
71.1400 55.0000
71.1500 45.0000
71.1600 10.0000
71.1700 30.0000
71.1800 50.0000
71.1900 30.0000
71.2000 30.0000
71.2100 50.0000
71.2200 40.0000
71.2300 50.0000
71.2400 30.0000
71.2500 55.0000
71.2600 45.0000
71.2700 30.0000
71.2800 30.0000
71.2900 55.0000
71.3000 50.0000
71.3100 40.0000
71.3200 30.0000
71.3300 50.0000
71.3400 30.0000
71.3500 50.0000
71.3600 55.0000
71.3700 50.0000
71.3800 60.0000
71.3900 25.0000
71.4000 50.0000
71.4100 45.0000
71.4200 50.0000
71.4300 25.0000
71.4400 30.0000
71.4500 35.0000
71.4600 30.0000
71.4700 50.0000
71.4800 15.0000
71.4900 30.0000
71.5000 45.0000
71.5100 60.0000
71.5200 25.0000
71.5300 35.0000
71.5400 55.0000
71.5500 60.0000
71.5600 50.0000
71.5700 70.0000
71.5800 50.0000
71.5900 60.0000
71.6000 70.0000
71.6100 50.0000
71.6200 45.0000
71.6300 30.0000
71.6400 50.0000
71.6500 70.0000
71.6600 35.0000
71.6700 75.0000
71.6800 50.0000
71.6900 50.0000
71.7000 70.0000
71.7100 35.0000
71.7200 55.0000
71.7300 65.0000
71.7400 70.0000
71.7500 45.0000
71.7600 40.0000
71.7700 45.0000
71.7800 35.0000
71.7900 40.0000
71.8000 55.0000
71.8100 45.0000
71.8200 60.0000
71.8300 75.0000
71.8400 90.0000
71.8500 65.0000
71.8600 15.0000
71.8700 50.0000
71.8800 30.0000
71.8900 55.0000
71.9000 45.0000
71.9100 35.0000
71.9200 40.0000
71.9300 35.0000
71.9400 50.0000
71.9500 40.0000
71.9600 15.0000
71.9700 40.0000
71.9800 25.0000
71.9900 25.0000
72.0000 40.0000
72.0100 25.0000
72.0200 20.0000
72.0300 25.0000
72.0400 75.0000
72.0500 30.0000
72.0600 35.0000
72.0700 35.0000
72.0800 25.0000
72.0900 50.0000
72.1000 35.0000
72.1100 35.0000
72.1200 25.0000
72.1300 30.0000
72.1400 15.0000
72.1500 40.0000
72.1600 45.0000
72.1700 40.0000
72.1800 35.0000
72.1900 30.0000
72.2000 40.0000
72.2100 30.0000
72.2200 30.0000
72.2300 30.0000
72.2400 30.0000
72.2500 30.0000
72.2600 30.0000
72.2700 25.0000
72.2800 15.0000
72.2900 40.0000
72.3000 30.0000
72.3100 30.0000
72.3200 15.0000
72.3300 20.0000
72.3400 35.0000
72.3500 50.0000
72.3600 50.0000
72.3700 50.0000
72.3800 50.0000
72.3900 40.0000
72.4000 25.0000
72.4100 30.0000
72.4200 35.0000
72.4300 20.0000
72.4400 60.0000
72.4500 45.0000
72.4600 15.0000
72.4700 15.0000
72.4800 40.0000
72.4900 45.0000
72.5000 35.0000
72.5100 10.0000
72.5200 25.0000
72.5300 25.0000
72.5400 25.0000
72.5500 20.0000
72.5600 25.0000
72.5700 15.0000
72.5800 35.0000
72.5900 15.0000
72.6000 45.0000
72.6100 30.0000
72.6200 35.0000
72.6300 35.0000
72.6400 45.0000
72.6500 40.0000
72.6600 20.0000
72.6700 10.0000
72.6800 40.0000
72.6900 25.0000
72.7000 25.0000
72.7100 20.0000
72.7200 50.0000
72.7300 35.0000
72.7400 35.0000
72.7500 40.0000
72.7600 25.0000
72.7700 25.0000
72.7800 30.0000
72.7900 35.0000
72.8000 40.0000
72.8100 45.0000
72.8200 55.0000
72.8300 35.0000
72.8400 50.0000
72.8500 50.0000
72.8600 35.0000
72.8700 30.0000
72.8800 55.0000
72.8900 30.0000
72.9000 25.0000
72.9100 45.0000
72.9200 45.0000
72.9300 45.0000
72.9400 20.0000
72.9500 50.0000
72.9600 35.0000
72.9700 35.0000
72.9800 25.0000
72.9900 50.0000
73.0000 45.0000
73.0100 15.0000
73.0200 45.0000
73.0300 40.0000
73.0400 30.0000
73.0500 35.0000
73.0600 45.0000
73.0700 65.0000
73.0800 40.0000
73.0900 45.0000
73.1000 65.0000
73.1100 60.0000
73.1200 40.0000
73.1300 50.0000
73.1400 20.0000
73.1500 45.0000
73.1600 45.0000
73.1700 40.0000
73.1800 55.0000
73.1900 55.0000
73.2000 55.0000
73.2100 40.0000
73.2200 45.0000
73.2300 55.0000
73.2400 65.0000
73.2500 60.0000
73.2600 55.0000
73.2700 50.0000
73.2800 45.0000
73.2900 60.0000
73.3000 75.0000
73.3100 60.0000
73.3200 90.0000
73.3300 100.0000
73.3400 90.0000
73.3500 120.0000
73.3600 140.0000
73.3700 160.0000
73.3800 180.0000
73.3900 245.0000
73.4000 295.0000
73.4100 325.0000
73.4200 400.0000
73.4300 420.0000
73.4400 615.0000
73.4500 665.0000
73.4600 940.0000
73.4700 1170.0000
73.4800 1230.0000
73.4900 1325.0000
73.5000 1595.0000
73.5100 1625.0000
73.5200 1670.0000
73.5300 1740.0000
73.5400 1755.0000
73.5500 1325.0000
73.5600 1165.0000
73.5700 890.0000
73.5800 580.0000
73.5900 390.0000
73.6000 315.0000
73.6100 275.0000
73.6200 205.0000
73.6300 140.0000
73.6400 140.0000
73.6500 125.0000
73.6600 115.0000
73.6700 40.0000
73.6800 90.0000
73.6900 80.0000
73.7000 65.0000
73.7100 40.0000
73.7200 70.0000
73.7300 90.0000
73.7400 55.0000
73.7500 70.0000
73.7600 60.0000
73.7700 50.0000
73.7800 45.0000
73.7900 50.0000
73.8000 55.0000
73.8100 55.0000
73.8200 65.0000
73.8300 55.0000
73.8400 40.0000
73.8500 50.0000
73.8600 45.0000
73.8700 25.0000
73.8800 40.0000
73.8900 40.0000
73.9000 45.0000
73.9100 40.0000
73.9200 80.0000
73.9300 70.0000
73.9400 45.0000
73.9500 45.0000
73.9600 50.0000
73.9700 10.0000
73.9800 35.0000
73.9900 50.0000
74.0000 30.0000
74.0100 45.0000
74.0200 80.0000
74.0300 40.0000
74.0400 35.0000
74.0500 35.0000
74.0600 35.0000
74.0700 40.0000
74.0800 15.0000
74.0900 30.0000
74.1000 45.0000
74.1100 40.0000
74.1200 45.0000
74.1300 40.0000
74.1400 45.0000
74.1500 55.0000
74.1600 45.0000
74.1700 30.0000
74.1800 55.0000
74.1900 60.0000
74.2000 45.0000
74.2100 70.0000
74.2200 55.0000
74.2300 55.0000
74.2400 55.0000
74.2500 60.0000
74.2600 55.0000
74.2700 45.0000
74.2800 70.0000
74.2900 35.0000
74.3000 65.0000
74.3100 65.0000
74.3200 35.0000
74.3300 30.0000
74.3400 70.0000
74.3500 65.0000
74.3600 55.0000
74.3700 55.0000
74.3800 70.0000
74.3900 60.0000
74.4000 70.0000
74.4100 115.0000
74.4200 100.0000
74.4300 45.0000
74.4400 95.0000
74.4500 140.0000
74.4600 140.0000
74.4700 150.0000
74.4800 160.0000
74.4900 205.0000
74.5000 320.0000
74.5100 270.0000
74.5200 235.0000
74.5300 220.0000
74.5400 230.0000
74.5500 190.0000
74.5600 155.0000
74.5700 145.0000
74.5800 110.0000
74.5900 80.0000
74.6000 50.0000
74.6100 60.0000
74.6200 50.0000
74.6300 45.0000
74.6400 55.0000
74.6500 35.0000
74.6600 60.0000
74.6700 50.0000
74.6800 60.0000
74.6900 60.0000
74.7000 70.0000
74.7100 110.0000
74.7200 80.0000
74.7300 90.0000
74.7400 115.0000
74.7500 105.0000
74.7600 140.0000
74.7700 175.0000
74.7800 200.0000
74.7900 265.0000
74.8000 315.0000
74.8100 445.0000
74.8200 630.0000
74.8300 790.0000
74.8400 895.0000
74.8500 695.0000
74.8600 720.0000
74.8700 500.0000
74.8800 385.0000
74.8900 370.0000
74.9000 290.0000
74.9100 180.0000
74.9200 120.0000
74.9300 110.0000
74.9400 105.0000
74.9500 80.0000
74.9600 75.0000
74.9700 60.0000
74.9800 65.0000
74.9900 70.0000
75.0000 55.0000
75.0100 45.0000
75.0200 80.0000
75.0300 45.0000
75.0400 50.0000
75.0500 55.0000
75.0600 85.0000
75.0700 70.0000
75.0800 35.0000
75.0900 40.0000
75.1000 30.0000
75.1100 30.0000
75.1200 60.0000
75.1300 55.0000
75.1400 30.0000
75.1500 30.0000
75.1600 30.0000
75.1700 30.0000
75.1800 50.0000
75.1900 40.0000
75.2000 45.0000
75.2100 35.0000
75.2200 40.0000
75.2300 45.0000
75.2400 35.0000
75.2500 35.0000
75.2600 30.0000
75.2700 45.0000
75.2800 40.0000
75.2900 35.0000
75.3000 60.0000
75.3100 50.0000
75.3200 60.0000
75.3300 30.0000
75.3400 30.0000
75.3500 40.0000
75.3600 40.0000
75.3700 55.0000
75.3800 35.0000
75.3900 50.0000
75.4000 40.0000
75.4100 25.0000
75.4200 60.0000
75.4300 30.0000
75.4400 55.0000
75.4500 35.0000
75.4600 45.0000
75.4700 55.0000
75.4800 50.0000
75.4900 55.0000
75.5000 45.0000
75.5100 50.0000
75.5200 70.0000
75.5300 50.0000
75.5400 50.0000
75.5500 60.0000
75.5600 45.0000
75.5700 15.0000
75.5800 50.0000
75.5900 55.0000
75.6000 35.0000
75.6100 75.0000
75.6200 55.0000
75.6300 60.0000
75.6400 60.0000
75.6500 70.0000
75.6600 55.0000
75.6700 40.0000
75.6800 55.0000
75.6900 65.0000
75.7000 45.0000
75.7100 50.0000
75.7200 55.0000
75.7300 30.0000
75.7400 45.0000
75.7500 25.0000
75.7600 35.0000
75.7700 70.0000
75.7800 40.0000
75.7900 55.0000
75.8000 50.0000
75.8100 40.0000
75.8200 45.0000
75.8300 55.0000
75.8400 25.0000
75.8500 40.0000
75.8600 35.0000
75.8700 60.0000
75.8800 40.0000
75.8900 25.0000
75.9000 20.0000
75.9100 40.0000
75.9200 35.0000
75.9300 35.0000
75.9400 40.0000
75.9500 65.0000
75.9600 40.0000
75.9700 20.0000
75.9800 10.0000
75.9900 75.0000
76.0000 65.0000
76.0100 40.0000
76.0200 40.0000
76.0300 40.0000
76.0400 25.0000
76.0500 30.0000
76.0600 55.0000
76.0700 60.0000
76.0800 20.0000
76.0900 45.0000
76.1000 45.0000
76.1100 25.0000
76.1200 50.0000
76.1300 75.0000
76.1400 60.0000
76.1500 55.0000
76.1600 50.0000
76.1700 45.0000
76.1800 80.0000
76.1900 70.0000
76.2000 55.0000
76.2100 95.0000
76.2200 50.0000
76.2300 50.0000
76.2400 40.0000
76.2500 40.0000
76.2600 50.0000
76.2700 45.0000
76.2800 40.0000
76.2900 40.0000
76.3000 15.0000
76.3100 25.0000
76.3200 30.0000
76.3300 40.0000
76.3400 45.0000
76.3500 25.0000
76.3600 40.0000
76.3700 45.0000
76.3800 30.0000
76.3900 20.0000
76.4000 45.0000
76.4100 20.0000
76.4200 25.0000
76.4300 45.0000
76.4400 25.0000
76.4500 25.0000
76.4600 35.0000
76.4700 25.0000
76.4800 45.0000
76.4900 35.0000
76.5000 20.0000
76.5100 55.0000
76.5200 55.0000
76.5300 40.0000
76.5400 40.0000
76.5500 45.0000
76.5600 20.0000
76.5700 45.0000
76.5800 30.0000
76.5900 20.0000
76.6000 15.0000
76.6100 35.0000
76.6200 35.0000
76.6300 40.0000
76.6400 25.0000
76.6500 40.0000
76.6600 20.0000
76.6700 40.0000
76.6800 25.0000
76.6900 45.0000
76.7000 35.0000
76.7100 10.0000
76.7200 5.0000
76.7300 25.0000
76.7400 35.0000
76.7500 50.0000
76.7600 30.0000
76.7700 55.0000
76.7800 35.0000
76.7900 30.0000
76.8000 25.0000
76.8100 40.0000
76.8200 30.0000
76.8300 45.0000
76.8400 30.0000
76.8500 35.0000
76.8600 55.0000
76.8700 35.0000
76.8800 55.0000
76.8900 60.0000
76.9000 55.0000
76.9100 40.0000
76.9200 75.0000
76.9300 45.0000
76.9400 70.0000
76.9500 55.0000
76.9600 40.0000
76.9700 45.0000
76.9800 50.0000
76.9900 35.0000
77.0000 60.0000
77.0100 100.0000
77.0200 65.0000
77.0300 80.0000
77.0400 75.0000
77.0500 75.0000
77.0600 110.0000
77.0700 100.0000
77.0800 170.0000
77.0900 200.0000
77.1000 215.0000
77.1100 325.0000
77.1200 375.0000
77.1300 415.0000
77.1400 425.0000
77.1500 505.0000
77.1600 540.0000
77.1700 495.0000
77.1800 450.0000
77.1900 370.0000
77.2000 335.0000
77.2100 235.0000
77.2200 210.0000
77.2300 155.0000
77.2400 115.0000
77.2500 130.0000
77.2600 95.0000
77.2700 75.0000
77.2800 130.0000
77.2900 115.0000
77.3000 190.0000
77.3100 185.0000
77.3200 170.0000
77.3300 170.0000
77.3400 135.0000
77.3500 135.0000
77.3600 115.0000
77.3700 155.0000
77.3800 115.0000
77.3900 125.0000
77.4000 85.0000
77.4100 55.0000
77.4200 60.0000
77.4300 65.0000
77.4400 60.0000
77.4500 100.0000
77.4600 60.0000
77.4700 65.0000
77.4800 30.0000
77.4900 50.0000
77.5000 35.0000
77.5100 45.0000
77.5200 40.0000
77.5300 40.0000
77.5400 60.0000
77.5500 45.0000
77.5600 55.0000
77.5700 35.0000
77.5800 40.0000
77.5900 50.0000
77.6000 50.0000
77.6100 60.0000
77.6200 50.0000
77.6300 30.0000
77.6400 40.0000
77.6500 40.0000
77.6600 25.0000
77.6700 30.0000
77.6800 30.0000
77.6900 30.0000
77.7000 45.0000
77.7100 40.0000
77.7200 20.0000
77.7300 40.0000
77.7400 30.0000
77.7500 25.0000
77.7600 45.0000
77.7700 25.0000
77.7800 10.0000
77.7900 25.0000
77.8000 55.0000
77.8100 45.0000
77.8200 45.0000
77.8300 25.0000
77.8400 25.0000
77.8500 35.0000
77.8600 45.0000
77.8700 45.0000
77.8800 30.0000
77.8900 30.0000
77.9000 20.0000
77.9100 10.0000
77.9200 40.0000
77.9300 15.0000
77.9400 10.0000
77.9500 25.0000
77.9600 15.0000
77.9700 30.0000
77.9800 45.0000
77.9900 45.0000
78.0000 50.0000
78.0100 45.0000
78.0200 25.0000
78.0300 40.0000
78.0400 40.0000
78.0500 20.0000
78.0600 25.0000
78.0700 20.0000
78.0800 15.0000
78.0900 20.0000
78.1000 20.0000
78.1100 30.0000
78.1200 25.0000
78.1300 30.0000
78.1400 55.0000
78.1500 30.0000
78.1600 95.0000
78.1700 50.0000
78.1800 40.0000
78.1900 20.0000
78.2000 40.0000
78.2100 40.0000
78.2200 20.0000
78.2300 30.0000
78.2400 35.0000
78.2500 50.0000
78.2600 45.0000
78.2700 40.0000
78.2800 25.0000
78.2900 35.0000
78.3000 25.0000
78.3100 25.0000
78.3200 55.0000
78.3300 25.0000
78.3400 25.0000
78.3500 35.0000
78.3600 40.0000
78.3700 30.0000
78.3800 60.0000
78.3900 25.0000
78.4000 25.0000
78.4100 35.0000
78.4200 30.0000
78.4300 30.0000
78.4400 35.0000
78.4500 35.0000
78.4600 35.0000
78.4700 40.0000
78.4800 35.0000
78.4900 45.0000
78.5000 30.0000
78.5100 30.0000
78.5200 15.0000
78.5300 20.0000
78.5400 50.0000
78.5500 30.0000
78.5600 35.0000
78.5700 40.0000
78.5800 50.0000
78.5900 50.0000
78.6000 35.0000
78.6100 30.0000
78.6200 25.0000
78.6300 15.0000
78.6400 45.0000
78.6500 40.0000
78.6600 50.0000
78.6700 35.0000
78.6800 50.0000
78.6900 40.0000
78.7000 45.0000
78.7100 20.0000
78.7200 35.0000
78.7300 45.0000
78.7400 50.0000
78.7500 70.0000
78.7600 40.0000
78.7700 80.0000
78.7800 65.0000
78.7900 95.0000
78.8000 80.0000
78.8100 60.0000
78.8200 55.0000
78.8300 85.0000
78.8400 80.0000
78.8500 60.0000
78.8600 80.0000
78.8700 85.0000
78.8800 40.0000
78.8900 50.0000
78.9000 60.0000
78.9100 55.0000
78.9200 40.0000
78.9300 30.0000
78.9400 40.0000
78.9500 55.0000
78.9600 55.0000
78.9700 40.0000
78.9800 45.0000
78.9900 45.0000
79.0000 40.0000
79.0100 20.0000
79.0200 40.0000
79.0300 35.0000
79.0400 40.0000
79.0500 20.0000
79.0600 20.0000
79.0700 35.0000
79.0800 30.0000
79.0900 40.0000
79.1000 30.0000
79.1100 50.0000
79.1200 15.0000
79.1300 40.0000
79.1400 35.0000
79.1500 30.0000
79.1600 45.0000
79.1700 45.0000
79.1800 30.0000
79.1900 50.0000
79.2000 25.0000
79.2100 25.0000
79.2200 45.0000
79.2300 35.0000
79.2400 20.0000
79.2500 30.0000
79.2600 70.0000
79.2700 45.0000
79.2800 45.0000
79.2900 50.0000
79.3000 55.0000
79.3100 45.0000
79.3200 30.0000
79.3300 40.0000
79.3400 50.0000
79.3500 35.0000
79.3600 35.0000
79.3700 15.0000
79.3800 60.0000
79.3900 45.0000
79.4000 45.0000
79.4100 35.0000
79.4200 55.0000
79.4300 60.0000
79.4400 30.0000
79.4500 25.0000
79.4600 45.0000
79.4700 35.0000
79.4800 55.0000
79.4900 45.0000
79.5000 30.0000
79.5100 40.0000
79.5200 35.0000
79.5300 45.0000
79.5400 40.0000
79.5500 50.0000
79.5600 50.0000
79.5700 60.0000
79.5800 55.0000
79.5900 60.0000
79.6000 55.0000
79.6100 45.0000
79.6200 60.0000
79.6300 50.0000
79.6400 45.0000
79.6500 65.0000
79.6600 75.0000
79.6700 35.0000
79.6800 85.0000
79.6900 65.0000
79.7000 115.0000
79.7100 140.0000
79.7200 135.0000
79.7300 160.0000
79.7400 125.0000
79.7500 230.0000
79.7600 275.0000
79.7700 235.0000
79.7800 325.0000
79.7900 275.0000
79.8000 240.0000
79.8100 220.0000
79.8200 185.0000
79.8300 140.0000
79.8400 105.0000
79.8500 90.0000
79.8600 110.0000
79.8700 70.0000
79.8800 70.0000
79.8900 85.0000
79.9000 30.0000
79.9100 90.0000
79.9200 45.0000
79.9300 55.0000
79.9400 65.0000
79.9500 50.0000
79.9600 30.0000
79.9700 30.0000
79.9800 55.0000
79.9900 65.0000
80.0000 50.0000
80.0100 65.0000
80.0200 60.0000
80.0300 40.0000
80.0400 60.0000
80.0500 65.0000
80.0600 35.0000
80.0700 55.0000
80.0800 35.0000
80.0900 40.0000
80.1000 45.0000
80.1100 40.0000
80.1200 35.0000
80.1300 55.0000
80.1400 65.0000
80.1500 55.0000
80.1600 35.0000
80.1700 25.0000
80.1800 30.0000
80.1900 25.0000
80.2000 50.0000
80.2100 40.0000
80.2200 25.0000
80.2300 30.0000
80.2400 50.0000
80.2500 50.0000
80.2600 20.0000
80.2700 45.0000
80.2800 45.0000
80.2900 45.0000
80.3000 55.0000
80.3100 30.0000
80.3200 50.0000
80.3300 45.0000
80.3400 65.0000
80.3500 35.0000
80.3600 40.0000
80.3700 25.0000
80.3800 35.0000
80.3900 30.0000
80.4000 25.0000
80.4100 40.0000
80.4200 35.0000
80.4300 35.0000
80.4400 30.0000
80.4500 10.0000
80.4600 20.0000
80.4700 40.0000
80.4800 45.0000
80.4900 45.0000
80.5000 15.0000
80.5100 70.0000
80.5200 40.0000
80.5300 30.0000
80.5400 25.0000
80.5500 30.0000
80.5600 15.0000
80.5700 15.0000
80.5800 20.0000
80.5900 35.0000
80.6000 15.0000
80.6100 25.0000
80.6200 30.0000
80.6300 30.0000
80.6400 20.0000
80.6500 20.0000
80.6600 15.0000
80.6700 55.0000
80.6800 40.0000
80.6900 35.0000
80.7000 40.0000
80.7100 5.0000
80.7200 25.0000
80.7300 20.0000
80.7400 45.0000
80.7500 30.0000
80.7600 25.0000
80.7700 35.0000
80.7800 40.0000
80.7900 40.0000
80.8000 40.0000
80.8100 35.0000
80.8200 45.0000
80.8300 50.0000
80.8400 40.0000
80.8500 30.0000
80.8600 20.0000
80.8700 55.0000
80.8800 50.0000
80.8900 60.0000
80.9000 35.0000
80.9100 50.0000
80.9200 40.0000
80.9300 75.0000
80.9400 55.0000
80.9500 50.0000
80.9600 50.0000
80.9700 40.0000
80.9800 75.0000
80.9900 40.0000
81.0000 30.0000
81.0100 70.0000
81.0200 45.0000
81.0300 20.0000
81.0400 40.0000
81.0500 45.0000
81.0600 45.0000
81.0700 20.0000
81.0800 20.0000
81.0900 25.0000
81.1000 35.0000
81.1100 50.0000
81.1200 35.0000
81.1300 15.0000
81.1400 45.0000
81.1500 55.0000
81.1600 15.0000
81.1700 35.0000
81.1800 15.0000
81.1900 15.0000
81.2000 20.0000
81.2100 40.0000
81.2200 30.0000
81.2300 35.0000
81.2400 50.0000
81.2500 20.0000
81.2600 30.0000
81.2700 40.0000
81.2800 50.0000
81.2900 35.0000
81.3000 45.0000
81.3100 55.0000
81.3200 45.0000
81.3300 40.0000
81.3400 65.0000
81.3500 40.0000
81.3600 85.0000
81.3700 80.0000
81.3800 95.0000
81.3900 95.0000
81.4000 95.0000
81.4100 115.0000
81.4200 85.0000
81.4300 80.0000
81.4400 85.0000
81.4500 95.0000
81.4600 60.0000
81.4700 85.0000
81.4800 45.0000
81.4900 70.0000
81.5000 45.0000
81.5100 85.0000
81.5200 25.0000
81.5300 35.0000
81.5400 45.0000
81.5500 40.0000
81.5600 35.0000
81.5700 35.0000
81.5800 20.0000
81.5900 35.0000
81.6000 40.0000
81.6100 40.0000
81.6200 30.0000
81.6300 30.0000
81.6400 25.0000
81.6500 10.0000
81.6600 20.0000
81.6700 35.0000
81.6800 15.0000
81.6900 25.0000
81.7000 40.0000
81.7100 20.0000
81.7200 25.0000
81.7300 35.0000
81.7400 35.0000
81.7500 35.0000
81.7600 35.0000
81.7700 25.0000
81.7800 25.0000
81.7900 25.0000
81.8000 25.0000
81.8100 35.0000
81.8200 35.0000
81.8300 40.0000
81.8400 60.0000
81.8500 25.0000
81.8600 35.0000
81.8700 30.0000
81.8800 50.0000
81.8900 40.0000
81.9000 40.0000
81.9100 35.0000
81.9200 40.0000
81.9300 20.0000
81.9400 30.0000
81.9500 30.0000
81.9600 45.0000
81.9700 35.0000
81.9800 30.0000
81.9900 20.0000
82.0000 25.0000
82.0100 45.0000
82.0200 60.0000
82.0300 20.0000
82.0400 25.0000
82.0500 30.0000
82.0600 40.0000
82.0700 45.0000
82.0800 30.0000
82.0900 30.0000
82.1000 25.0000
82.1100 45.0000
82.1200 45.0000
82.1300 30.0000
82.1400 50.0000
82.1500 40.0000
82.1600 20.0000
82.1700 40.0000
82.1800 40.0000
82.1900 20.0000
82.2000 45.0000
82.2100 30.0000
82.2200 45.0000
82.2300 35.0000
82.2400 50.0000
82.2500 30.0000
82.2600 15.0000
82.2700 25.0000
82.2800 25.0000
82.2900 45.0000
82.3000 30.0000
82.3100 30.0000
82.3200 40.0000
82.3300 25.0000
82.3400 65.0000
82.3500 55.0000
82.3600 40.0000
82.3700 60.0000
82.3800 75.0000
82.3900 35.0000
82.4000 70.0000
82.4100 80.0000
82.4200 35.0000
82.4300 60.0000
82.4400 45.0000
82.4500 45.0000
82.4600 35.0000
82.4700 50.0000
82.4800 55.0000
82.4900 40.0000
82.5000 45.0000
82.5100 40.0000
82.5200 40.0000
82.5300 45.0000
82.5400 40.0000
82.5500 35.0000
82.5600 30.0000
82.5700 50.0000
82.5800 30.0000
82.5900 35.0000
82.6000 35.0000
82.6100 35.0000
82.6200 20.0000
82.6300 45.0000
82.6400 50.0000
82.6500 25.0000
82.6600 50.0000
82.6700 65.0000
82.6800 35.0000
82.6900 20.0000
82.7000 20.0000
82.7100 35.0000
82.7200 35.0000
82.7300 55.0000
82.7400 50.0000
82.7500 25.0000
82.7600 25.0000
82.7700 40.0000
82.7800 15.0000
82.7900 20.0000
82.8000 30.0000
82.8100 55.0000
82.8200 20.0000
82.8300 20.0000
82.8400 20.0000
82.8500 20.0000
82.8600 20.0000
82.8700 45.0000
82.8800 45.0000
82.8900 55.0000
82.9000 20.0000
82.9100 40.0000
82.9200 35.0000
82.9300 25.0000
82.9400 55.0000
82.9500 25.0000
82.9600 15.0000
82.9700 30.0000
82.9800 35.0000
82.9900 30.0000
83.0000 35.0000
83.0100 30.0000
83.0200 30.0000
83.0300 35.0000
83.0400 35.0000
83.0500 15.0000
83.0600 25.0000
83.0700 25.0000
83.0800 15.0000
83.0900 25.0000
83.1000 15.0000
83.1100 30.0000
83.1200 40.0000
83.1300 30.0000
83.1400 30.0000
83.1500 35.0000
83.1600 30.0000
83.1700 45.0000
83.1800 15.0000
83.1900 20.0000
83.2000 20.0000
83.2100 20.0000
83.2200 35.0000
83.2300 30.0000
83.2400 55.0000
83.2500 35.0000
83.2600 35.0000
83.2700 50.0000
83.2800 35.0000
83.2900 30.0000
83.3000 30.0000
83.3100 20.0000
83.3200 25.0000
83.3300 25.0000
83.3400 20.0000
83.3500 35.0000
83.3600 30.0000
83.3700 50.0000
83.3800 30.0000
83.3900 30.0000
83.4000 35.0000
83.4100 50.0000
83.4200 35.0000
83.4300 30.0000
83.4400 30.0000
83.4500 30.0000
83.4600 30.0000
83.4700 25.0000
83.4800 30.0000
83.4900 30.0000
83.5000 45.0000
83.5100 40.0000
83.5200 50.0000
83.5300 20.0000
83.5400 20.0000
83.5500 50.0000
83.5600 40.0000
83.5700 35.0000
83.5800 45.0000
83.5900 15.0000
83.6000 45.0000
83.6100 35.0000
83.6200 20.0000
83.6300 30.0000
83.6400 20.0000
83.6500 15.0000
83.6600 50.0000
83.6700 40.0000
83.6800 25.0000
83.6900 35.0000
83.7000 30.0000
83.7100 30.0000
83.7200 40.0000
83.7300 30.0000
83.7400 50.0000
83.7500 50.0000
83.7600 35.0000
83.7700 55.0000
83.7800 50.0000
83.7900 50.0000
83.8000 15.0000
83.8100 30.0000
83.8200 15.0000
83.8300 20.0000
83.8400 55.0000
83.8500 35.0000
83.8600 30.0000
83.8700 15.0000
83.8800 30.0000
83.8900 25.0000
83.9000 45.0000
83.9100 40.0000
83.9200 30.0000
83.9300 40.0000
83.9400 65.0000
83.9500 40.0000
83.9600 90.0000
83.9700 65.0000
83.9800 80.0000
83.9900 85.0000
84.0000 100.0000
84.0100 110.0000
84.0200 95.0000
84.0300 70.0000
84.0400 50.0000
84.0500 60.0000
84.0600 80.0000
84.0700 45.0000
84.0800 60.0000
84.0900 35.0000
84.1000 30.0000
84.1100 60.0000
84.1200 45.0000
84.1300 50.0000
84.1400 45.0000
84.1500 50.0000
84.1600 55.0000
84.1700 40.0000
84.1800 55.0000
84.1900 70.0000
84.2000 50.0000
84.2100 105.0000
84.2200 105.0000
84.2300 90.0000
84.2400 60.0000
84.2500 95.0000
84.2600 60.0000
84.2700 60.0000
84.2800 45.0000
84.2900 55.0000
84.3000 40.0000
84.3100 30.0000
84.3200 30.0000
84.3300 70.0000
84.3400 30.0000
84.3500 40.0000
84.3600 45.0000
84.3700 25.0000
84.3800 20.0000
84.3900 25.0000
84.4000 45.0000
84.4100 25.0000
84.4200 40.0000
84.4300 45.0000
84.4400 15.0000
84.4500 25.0000
84.4600 20.0000
84.4700 15.0000
84.4800 20.0000
84.4900 10.0000
84.5000 20.0000
84.5100 25.0000
84.5200 20.0000
84.5300 25.0000
84.5400 20.0000
84.5500 25.0000
84.5600 40.0000
84.5700 15.0000
84.5800 20.0000
84.5900 15.0000
84.6000 35.0000
84.6100 15.0000
84.6200 20.0000
84.6300 30.0000
84.6400 20.0000
84.6500 15.0000
84.6600 20.0000
84.6700 30.0000
84.6800 35.0000
84.6900 15.0000
84.7000 20.0000
84.7100 15.0000
84.7200 25.0000
84.7300 45.0000
84.7400 15.0000
84.7500 10.0000
84.7600 35.0000
84.7700 45.0000
84.7800 15.0000
84.7900 40.0000
84.8000 35.0000
84.8100 40.0000
84.8200 15.0000
84.8300 25.0000
84.8400 30.0000
84.8500 10.0000
84.8600 20.0000
84.8700 40.0000
84.8800 45.0000
84.8900 40.0000
84.9000 50.0000
84.9100 50.0000
84.9200 40.0000
84.9300 45.0000
84.9400 50.0000
84.9500 65.0000
84.9600 75.0000
84.9700 60.0000
84.9800 110.0000
84.9900 65.0000
85.0000 70.0000
85.0100 35.0000
85.0200 45.0000
85.0300 35.0000
85.0400 15.0000
85.0500 45.0000
85.0600 25.0000
85.0700 30.0000
85.0800 45.0000
85.0900 15.0000
85.1000 45.0000
85.1100 45.0000
85.1200 25.0000
85.1300 30.0000
85.1400 40.0000
85.1500 25.0000
85.1600 35.0000
85.1700 20.0000
85.1800 45.0000
85.1900 30.0000
85.2000 20.0000
85.2100 45.0000
85.2200 85.0000
85.2300 90.0000
85.2400 75.0000
85.2500 85.0000
85.2600 105.0000
85.2700 90.0000
85.2800 135.0000
85.2900 110.0000
85.3000 105.0000
85.3100 125.0000
85.3200 110.0000
85.3300 105.0000
85.3400 70.0000
85.3500 35.0000
85.3600 40.0000
85.3700 40.0000
85.3800 45.0000
85.3900 65.0000
85.4000 40.0000
85.4100 65.0000
85.4200 25.0000
85.4300 40.0000
85.4400 40.0000
85.4500 50.0000
85.4600 30.0000
85.4700 20.0000
85.4800 10.0000
85.4900 25.0000
85.5000 20.0000
85.5100 40.0000
85.5200 25.0000
85.5300 25.0000
85.5400 20.0000
85.5500 30.0000
85.5600 20.0000
85.5700 20.0000
85.5800 15.0000
85.5900 25.0000
85.6000 30.0000
85.6100 10.0000
85.6200 20.0000
85.6300 40.0000
85.6400 30.0000
85.6500 15.0000
85.6600 35.0000
85.6700 45.0000
85.6800 20.0000
85.6900 15.0000
85.7000 55.0000
85.7100 20.0000
85.7200 35.0000
85.7300 25.0000
85.7400 10.0000
85.7500 30.0000
85.7600 25.0000
85.7700 20.0000
85.7800 25.0000
85.7900 25.0000
85.8000 25.0000
85.8100 20.0000
85.8200 20.0000
85.8300 50.0000
85.8400 20.0000
85.8500 5.0000
85.8600 25.0000
85.8700 30.0000
85.8800 20.0000
85.8900 25.0000
85.9000 30.0000
85.9100 20.0000
85.9200 15.0000
85.9300 20.0000
85.9400 10.0000
85.9500 25.0000
85.9600 30.0000
85.9700 35.0000
85.9800 20.0000
85.9900 20.0000
86.0000 25.0000
86.0100 30.0000
86.0200 15.0000
86.0300 20.0000
86.0400 20.0000
86.0500 25.0000
86.0600 10.0000
86.0700 5.0000
86.0800 30.0000
86.0900 40.0000
86.1000 25.0000
86.1100 15.0000
86.1200 35.0000
86.1300 30.0000
86.1400 20.0000
86.1500 20.0000
86.1600 20.0000
86.1700 25.0000
86.1800 25.0000
86.1900 25.0000
86.2000 40.0000
86.2100 30.0000
86.2200 20.0000
86.2300 30.0000
86.2400 25.0000
86.2500 40.0000
86.2600 30.0000
86.2700 35.0000
86.2800 40.0000
86.2900 25.0000
86.3000 20.0000
86.3100 45.0000
86.3200 35.0000
86.3300 20.0000
86.3400 45.0000
86.3500 45.0000
86.3600 40.0000
86.3700 40.0000
86.3800 25.0000
86.3900 35.0000
86.4000 45.0000
86.4100 60.0000
86.4200 65.0000
86.4300 55.0000
86.4400 55.0000
86.4500 50.0000
86.4600 15.0000
86.4700 30.0000
86.4800 15.0000
86.4900 60.0000
86.5000 50.0000
86.5100 40.0000
86.5200 45.0000
86.5300 80.0000
86.5400 75.0000
86.5500 70.0000
86.5600 50.0000
86.5700 70.0000
86.5800 130.0000
86.5900 85.0000
86.6000 90.0000
86.6100 95.0000
86.6200 90.0000
86.6300 65.0000
86.6400 55.0000
86.6500 35.0000
86.6600 35.0000
86.6700 60.0000
86.6800 15.0000
86.6900 40.0000
86.7000 30.0000
86.7100 15.0000
86.7200 35.0000
86.7300 40.0000
86.7400 20.0000
86.7500 35.0000
86.7600 45.0000
86.7700 20.0000
86.7800 25.0000
86.7900 15.0000
86.8000 40.0000
86.8100 20.0000
86.8200 45.0000
86.8300 40.0000
86.8400 50.0000
86.8500 20.0000
86.8600 10.0000
86.8700 45.0000
86.8800 30.0000
86.8900 20.0000
86.9000 15.0000
86.9100 25.0000
86.9200 20.0000
86.9300 40.0000
86.9400 25.0000
86.9500 20.0000
86.9600 50.0000
86.9700 15.0000
86.9800 20.0000
86.9900 25.0000
87.0000 35.0000
87.0100 30.0000
87.0200 20.0000
87.0300 40.0000
87.0400 30.0000
87.0500 40.0000
87.0600 25.0000
87.0700 20.0000
87.0800 55.0000
87.0900 40.0000
87.1000 15.0000
87.1100 40.0000
87.1200 15.0000
87.1300 50.0000
87.1400 10.0000
87.1500 15.0000
87.1600 35.0000
87.1700 30.0000
87.1800 30.0000
87.1900 35.0000
87.2000 15.0000
87.2100 30.0000
87.2200 20.0000
87.2300 15.0000
87.2400 45.0000
87.2500 30.0000
87.2600 40.0000
87.2700 40.0000
87.2800 30.0000
87.2900 25.0000
87.3000 50.0000
87.3100 40.0000
87.3200 15.0000
87.3300 30.0000
87.3400 50.0000
87.3500 40.0000
87.3600 40.0000
87.3700 50.0000
87.3800 40.0000
87.3900 45.0000
87.4000 45.0000
87.4100 45.0000
87.4200 35.0000
87.4300 65.0000
87.4400 85.0000
87.4500 95.0000
87.4600 95.0000
87.4700 95.0000
87.4800 125.0000
87.4900 140.0000
87.5000 165.0000
87.5100 255.0000
87.5200 230.0000
87.5300 290.0000
87.5400 350.0000
87.5500 330.0000
87.5600 360.0000
87.5700 370.0000
87.5800 300.0000
87.5900 220.0000
87.6000 210.0000
87.6100 170.0000
87.6200 75.0000
87.6300 90.0000
87.6400 80.0000
87.6500 70.0000
87.6600 35.0000
87.6700 50.0000
87.6800 40.0000
87.6900 25.0000
87.7000 80.0000
87.7100 80.0000
87.7200 30.0000
87.7300 45.0000
87.7400 40.0000
87.7500 80.0000
87.7600 65.0000
87.7700 80.0000
87.7800 75.0000
87.7900 110.0000
87.8000 60.0000
87.8100 120.0000
87.8200 165.0000
87.8300 210.0000
87.8400 215.0000
87.8500 280.0000
87.8600 285.0000
87.8700 375.0000
87.8800 390.0000
87.8900 400.0000
87.9000 370.0000
87.9100 280.0000
87.9200 305.0000
87.9300 205.0000
87.9400 175.0000
87.9500 85.0000
87.9600 100.0000
87.9700 100.0000
87.9800 65.0000
87.9900 75.0000
88.0000 25.0000
88.0100 75.0000
88.0200 50.0000
88.0300 50.0000
88.0400 30.0000
88.0500 45.0000
88.0600 30.0000
88.0700 25.0000
88.0800 10.0000
88.0900 25.0000
88.1000 35.0000
88.1100 35.0000
88.1200 30.0000
88.1300 35.0000
88.1400 15.0000
88.1500 25.0000
88.1600 40.0000
88.1700 25.0000
88.1800 30.0000
88.1900 35.0000
88.2000 35.0000
88.2100 55.0000
88.2200 20.0000
88.2300 35.0000
88.2400 25.0000
88.2500 15.0000
88.2600 30.0000
88.2700 40.0000
88.2800 35.0000
88.2900 45.0000
88.3000 25.0000
88.3100 35.0000
88.3200 50.0000
88.3300 45.0000
88.3400 55.0000
88.3500 35.0000
88.3600 50.0000
88.3700 45.0000
88.3800 25.0000
88.3900 40.0000
88.4000 25.0000
88.4100 45.0000
88.4200 20.0000
88.4300 40.0000
88.4400 45.0000
88.4500 30.0000
88.4600 30.0000
88.4700 35.0000
88.4800 45.0000
88.4900 40.0000
88.5000 20.0000
88.5100 55.0000
88.5200 35.0000
88.5300 35.0000
88.5400 60.0000
88.5500 30.0000
88.5600 30.0000
88.5700 45.0000
88.5800 55.0000
88.5900 25.0000
88.6000 25.0000
88.6100 30.0000
88.6200 50.0000
88.6300 50.0000
88.6400 45.0000
88.6500 25.0000
88.6600 30.0000
88.6700 35.0000
88.6800 50.0000
88.6900 65.0000
88.7000 50.0000
88.7100 50.0000
88.7200 30.0000
88.7300 55.0000
88.7400 50.0000
88.7500 40.0000
88.7600 35.0000
88.7700 35.0000
88.7800 70.0000
88.7900 45.0000
88.8000 25.0000
88.8100 40.0000
88.8200 20.0000
88.8300 35.0000
88.8400 35.0000
88.8500 40.0000
88.8600 30.0000
88.8700 40.0000
88.8800 25.0000
88.8900 55.0000
88.9000 35.0000
88.9100 25.0000
88.9200 40.0000
88.9300 25.0000
88.9400 20.0000
88.9500 25.0000
88.9600 35.0000
88.9700 50.0000
88.9800 55.0000
88.9900 55.0000
89.0000 30.0000
89.0100 35.0000
89.0200 60.0000
89.0300 60.0000
89.0400 50.0000
89.0500 60.0000
89.0600 80.0000
89.0700 100.0000
89.0800 90.0000
89.0900 140.0000
89.1000 160.0000
89.1100 170.0000
89.1200 205.0000
89.1300 275.0000
89.1400 335.0000
89.1500 420.0000
89.1600 390.0000
89.1700 555.0000
89.1800 390.0000
89.1900 315.0000
89.2000 250.0000
89.2100 235.0000
89.2200 160.0000
89.2300 120.0000
89.2400 100.0000
89.2500 60.0000
89.2600 65.0000
89.2700 35.0000
89.2800 50.0000
89.2900 30.0000
89.3000 55.0000
89.3100 20.0000
89.3200 45.0000
89.3300 40.0000
89.3400 35.0000
89.3500 70.0000
89.3600 25.0000
89.3700 35.0000
89.3800 30.0000
89.3900 40.0000
89.4000 35.0000
89.4100 25.0000
89.4200 45.0000
89.4300 40.0000
89.4400 30.0000
89.4500 25.0000
89.4600 45.0000
89.4700 45.0000
89.4800 35.0000
89.4900 35.0000
89.5000 25.0000
89.5100 30.0000
89.5200 35.0000
89.5300 35.0000
89.5400 40.0000
89.5500 40.0000
89.5600 30.0000
89.5700 25.0000
89.5800 45.0000
89.5900 25.0000
89.6000 45.0000
89.6100 30.0000
89.6200 10.0000
89.6300 20.0000
89.6400 40.0000
89.6500 30.0000
89.6600 35.0000
89.6700 45.0000
89.6800 30.0000
89.6900 25.0000
89.7000 10.0000
89.7100 20.0000
89.7200 30.0000
89.7300 30.0000
89.7400 25.0000
89.7500 15.0000
89.7600 30.0000
89.7700 15.0000
89.7800 30.0000
89.7900 30.0000
89.8000 35.0000
89.8100 25.0000
89.8200 40.0000
89.8300 15.0000
89.8400 50.0000
89.8500 40.0000
89.8600 30.0000
89.8700 30.0000
89.8800 40.0000
89.8900 40.0000
89.9000 15.0000
89.9100 30.0000
89.9200 40.0000
89.9300 55.0000
89.9400 50.0000
89.9500 55.0000
89.9600 50.0000
89.9700 60.0000
89.9800 85.0000
89.9900 80.0000
90.0000 70.0000
90.0100 75.0000
90.0200 130.0000
90.0300 75.0000
90.0400 120.0000
90.0500 145.0000
90.0600 180.0000
90.0700 165.0000
90.0800 190.0000
90.0900 335.0000
90.1000 345.0000
90.1100 365.0000
90.1200 385.0000
90.1300 350.0000
90.1400 305.0000
90.1500 285.0000
90.1600 210.0000
90.1700 155.0000
90.1800 130.0000
90.1900 105.0000
90.2000 75.0000
90.2100 55.0000
90.2200 40.0000
90.2300 35.0000
90.2400 60.0000
90.2500 50.0000
90.2600 40.0000
90.2700 45.0000
90.2800 45.0000
90.2900 35.0000
90.3000 30.0000
90.3100 30.0000
90.3200 30.0000
90.3300 55.0000
90.3400 40.0000
90.3500 45.0000
90.3600 50.0000
90.3700 55.0000
90.3800 20.0000
90.3900 10.0000
90.4000 40.0000
90.4100 35.0000
90.4200 45.0000
90.4300 35.0000
90.4400 25.0000
90.4500 55.0000
90.4600 60.0000
90.4700 50.0000
90.4800 25.0000
90.4900 35.0000
90.5000 35.0000
90.5100 15.0000
90.5200 25.0000
90.5300 35.0000
90.5400 30.0000
90.5500 35.0000
90.5600 20.0000
90.5700 45.0000
90.5800 40.0000
90.5900 30.0000
90.6000 50.0000
90.6100 45.0000
90.6200 30.0000
90.6300 35.0000
90.6400 30.0000
90.6500 30.0000
90.6600 45.0000
90.6700 15.0000
90.6800 25.0000
90.6900 35.0000
90.7000 30.0000
90.7100 25.0000
90.7200 10.0000
90.7300 50.0000
90.7400 30.0000
90.7500 20.0000
90.7600 35.0000
90.7700 30.0000
90.7800 30.0000
90.7900 40.0000
90.8000 30.0000
90.8100 30.0000
90.8200 25.0000
90.8300 25.0000
90.8400 40.0000
90.8500 5.0000
90.8600 15.0000
90.8700 30.0000
90.8800 45.0000
90.8900 25.0000
90.9000 35.0000
90.9100 20.0000
90.9200 20.0000
90.9300 45.0000
90.9400 40.0000
90.9500 25.0000
90.9600 30.0000
90.9700 40.0000
90.9800 20.0000
90.9900 25.0000
91.0000 35.0000
91.0100 20.0000
91.0200 40.0000
91.0300 15.0000
91.0400 15.0000
91.0500 30.0000
91.0600 40.0000
91.0700 25.0000
91.0800 25.0000
91.0900 25.0000
91.1000 30.0000
91.1100 20.0000
91.1200 35.0000
91.1300 40.0000
91.1400 15.0000
91.1500 20.0000
91.1600 35.0000
91.1700 30.0000
91.1800 50.0000
91.1900 15.0000
91.2000 60.0000
91.2100 60.0000
91.2200 20.0000
91.2300 25.0000
91.2400 25.0000
91.2500 30.0000
91.2600 15.0000
91.2700 35.0000
91.2800 50.0000
91.2900 35.0000
91.3000 5.0000
91.3100 20.0000
91.3200 25.0000
91.3300 30.0000
91.3400 35.0000
91.3500 30.0000
91.3600 5.0000
91.3700 30.0000
91.3800 20.0000
91.3900 45.0000
91.4000 25.0000
91.4100 40.0000
91.4200 30.0000
91.4300 15.0000
91.4400 30.0000
91.4500 25.0000
91.4600 30.0000
91.4700 25.0000
91.4800 45.0000
91.4900 40.0000
91.5000 20.0000
91.5100 30.0000
91.5200 50.0000
91.5300 30.0000
91.5400 40.0000
91.5500 40.0000
91.5600 40.0000
91.5700 35.0000
91.5800 25.0000
91.5900 40.0000
91.6000 40.0000
91.6100 35.0000
91.6200 50.0000
91.6300 30.0000
91.6400 50.0000
91.6500 55.0000
91.6600 30.0000
91.6700 50.0000
91.6800 65.0000
91.6900 70.0000
91.7000 75.0000
91.7100 75.0000
91.7200 95.0000
91.7300 65.0000
91.7400 65.0000
91.7500 30.0000
91.7600 40.0000
91.7700 55.0000
91.7800 45.0000
91.7900 50.0000
91.8000 30.0000
91.8100 25.0000
91.8200 35.0000
91.8300 30.0000
91.8400 45.0000
91.8500 35.0000
91.8600 25.0000
91.8700 25.0000
91.8800 20.0000
91.8900 25.0000
91.9000 35.0000
91.9100 20.0000
91.9200 40.0000
91.9300 30.0000
91.9400 35.0000
91.9500 50.0000
91.9600 20.0000
91.9700 15.0000
91.9800 50.0000
91.9900 30.0000
92.0000 45.0000
92.0100 45.0000
92.0200 35.0000
92.0300 45.0000
92.0400 30.0000
92.0500 25.0000
92.0600 35.0000
92.0700 30.0000
92.0800 35.0000
92.0900 55.0000
92.1000 35.0000
92.1100 20.0000
92.1200 30.0000
92.1300 35.0000
92.1400 45.0000
92.1500 25.0000
92.1600 45.0000
92.1700 35.0000
92.1800 45.0000
92.1900 5.0000
92.2000 30.0000
92.2100 30.0000
92.2200 25.0000
92.2300 20.0000
92.2400 25.0000
92.2500 35.0000
92.2600 30.0000
92.2700 35.0000
92.2800 35.0000
92.2900 25.0000
92.3000 25.0000
92.3100 25.0000
92.3200 30.0000
92.3300 20.0000
92.3400 35.0000
92.3500 20.0000
92.3600 25.0000
92.3700 25.0000
92.3800 15.0000
92.3900 30.0000
92.4000 15.0000
92.4100 15.0000
92.4200 20.0000
92.4300 15.0000
92.4400 35.0000
92.4500 20.0000
92.4600 25.0000
92.4700 50.0000
92.4800 30.0000
92.4900 25.0000
92.5000 40.0000
92.5100 20.0000
92.5200 5.0000
92.5300 35.0000
92.5400 25.0000
92.5500 25.0000
92.5600 40.0000
92.5700 45.0000
92.5800 30.0000
92.5900 20.0000
92.6000 20.0000
92.6100 30.0000
92.6200 30.0000
92.6300 45.0000
92.6400 35.0000
92.6500 25.0000
92.6600 15.0000
92.6700 30.0000
92.6800 30.0000
92.6900 45.0000
92.7000 55.0000
92.7100 35.0000
92.7200 40.0000
92.7300 40.0000
92.7400 30.0000
92.7500 25.0000
92.7600 20.0000
92.7700 45.0000
92.7800 25.0000
92.7900 15.0000
92.8000 30.0000
92.8100 25.0000
92.8200 25.0000
92.8300 35.0000
92.8400 35.0000
92.8500 20.0000
92.8600 30.0000
92.8700 35.0000
92.8800 20.0000
92.8900 20.0000
92.9000 35.0000
92.9100 35.0000
92.9200 25.0000
92.9300 25.0000
92.9400 30.0000
92.9500 35.0000
92.9600 30.0000
92.9700 30.0000
92.9800 30.0000
92.9900 15.0000
93.0000 30.0000
93.0100 35.0000
93.0200 15.0000
93.0300 25.0000
93.0400 25.0000
93.0500 25.0000
93.0600 20.0000
93.0700 45.0000
93.0800 25.0000
93.0900 40.0000
93.1000 25.0000
93.1100 25.0000
93.1200 25.0000
93.1300 30.0000
93.1400 20.0000
93.1500 20.0000
93.1600 20.0000
93.1700 20.0000
93.1800 15.0000
93.1900 5.0000
93.2000 30.0000
93.2100 30.0000
93.2200 15.0000
93.2300 15.0000
93.2400 25.0000
93.2500 20.0000
93.2600 20.0000
93.2700 20.0000
93.2800 25.0000
93.2900 5.0000
93.3000 10.0000
93.3100 15.0000
93.3200 20.0000
93.3300 15.0000
93.3400 25.0000
93.3500 15.0000
93.3600 20.0000
93.3700 10.0000
93.3800 25.0000
93.3900 25.0000
93.4000 5.0000
93.4100 30.0000
93.4200 10.0000
93.4300 10.0000
93.4400 15.0000
93.4500 10.0000
93.4600 10.0000
93.4700 35.0000
93.4800 25.0000
93.4900 30.0000
93.5000 10.0000
93.5100 25.0000
93.5200 50.0000
93.5300 30.0000
93.5400 25.0000
93.5500 25.0000
93.5600 30.0000
93.5700 25.0000
93.5800 30.0000
93.5900 15.0000
93.6000 20.0000
93.6100 15.0000
93.6200 25.0000
93.6300 10.0000
93.6400 25.0000
93.6500 45.0000
93.6600 20.0000
93.6700 20.0000
93.6800 15.0000
93.6900 15.0000
93.7000 20.0000
93.7100 15.0000
93.7200 20.0000
93.7300 15.0000
93.7400 10.0000
93.7500 15.0000
93.7600 25.0000
93.7700 20.0000
93.7800 15.0000
93.7900 30.0000
93.8000 5.0000
93.8100 25.0000
93.8200 25.0000
93.8300 0.0000
93.8400 10.0000
93.8500 20.0000
93.8600 15.0000
93.8700 20.0000
93.8800 30.0000
93.8900 20.0000
93.9000 15.0000
93.9100 5.0000
93.9200 5.0000
93.9300 35.0000
93.9400 15.0000
93.9500 25.0000
93.9600 15.0000
93.9700 10.0000
93.9800 25.0000
93.9900 20.0000
94.0000 20.0000
94.0100 15.0000
94.0200 20.0000
94.0300 15.0000
94.0400 15.0000
94.0500 10.0000
94.0600 20.0000
94.0700 15.0000
94.0800 35.0000
94.0900 30.0000
94.1000 25.0000
94.1100 15.0000
94.1200 5.0000
94.1300 20.0000
94.1400 50.0000
94.1500 15.0000
94.1600 25.0000
94.1700 10.0000
94.1800 25.0000
94.1900 20.0000
94.2000 20.0000
94.2100 35.0000
94.2200 45.0000
94.2300 45.0000
94.2400 50.0000
94.2500 45.0000
94.2600 45.0000
94.2700 35.0000
94.2800 50.0000
94.2900 35.0000
94.3000 45.0000
94.3100 20.0000
94.3200 10.0000
94.3300 10.0000
94.3400 15.0000
94.3500 10.0000
94.3600 25.0000
94.3700 30.0000
94.3800 15.0000
94.3900 20.0000
94.4000 20.0000
94.4100 30.0000
94.4200 20.0000
94.4300 35.0000
94.4400 25.0000
94.4500 30.0000
94.4600 25.0000
94.4700 20.0000
94.4800 25.0000
94.4900 20.0000
94.5000 20.0000
94.5100 25.0000
94.5200 10.0000
94.5300 15.0000
94.5400 25.0000
94.5500 15.0000
94.5600 20.0000
94.5700 15.0000
94.5800 10.0000
94.5900 15.0000
94.6000 10.0000
94.6100 20.0000
94.6200 20.0000
94.6300 15.0000
94.6400 10.0000
94.6500 20.0000
94.6600 25.0000
94.6700 35.0000
94.6800 15.0000
94.6900 30.0000
94.7000 15.0000
94.7100 15.0000
94.7200 15.0000
94.7300 20.0000
94.7400 15.0000
94.7500 15.0000
94.7600 20.0000
94.7700 50.0000
94.7800 20.0000
94.7900 25.0000
94.8000 25.0000
94.8100 40.0000
94.8200 10.0000
94.8300 15.0000
94.8400 25.0000
94.8500 25.0000
94.8600 35.0000
94.8700 35.0000
94.8800 15.0000
94.8900 25.0000
94.9000 35.0000
94.9100 35.0000
94.9200 15.0000
94.9300 10.0000
94.9400 5.0000
94.9500 15.0000
94.9600 15.0000
94.9700 30.0000
94.9800 25.0000
94.9900 10.0000
95.0000 20.0000
95.0100 25.0000
95.0200 25.0000
95.0300 30.0000
95.0400 30.0000
95.0500 25.0000
95.0600 25.0000
95.0700 20.0000
95.0800 10.0000
95.0900 30.0000
95.1000 30.0000
95.1100 40.0000
95.1200 30.0000
95.1300 20.0000
95.1400 30.0000
95.1500 5.0000
95.1600 10.0000
95.1700 35.0000
95.1800 65.0000
95.1900 60.0000
95.2000 35.0000
95.2100 35.0000
95.2200 60.0000
95.2300 50.0000
95.2400 40.0000
95.2500 15.0000
95.2600 45.0000
95.2700 70.0000
95.2800 70.0000
95.2900 55.0000
95.3000 45.0000
95.3100 50.0000
95.3200 55.0000
95.3300 45.0000
95.3400 35.0000
95.3500 35.0000
95.3600 25.0000
95.3700 25.0000
95.3800 20.0000
95.3900 30.0000
95.4000 40.0000
95.4100 20.0000
95.4200 25.0000
95.4300 30.0000
95.4400 20.0000
95.4500 15.0000
95.4600 20.0000
95.4700 25.0000
95.4800 20.0000
95.4900 25.0000
95.5000 30.0000
95.5100 30.0000
95.5200 20.0000
95.5300 10.0000
95.5400 20.0000
95.5500 65.0000
95.5600 25.0000
95.5700 35.0000
95.5800 30.0000
95.5900 35.0000
95.6000 55.0000
95.6100 30.0000
95.6200 30.0000
95.6300 55.0000
95.6400 55.0000
95.6500 20.0000
95.6600 45.0000
95.6700 60.0000
95.6800 35.0000
95.6900 50.0000
95.7000 30.0000
95.7100 25.0000
95.7200 50.0000
95.7300 25.0000
95.7400 50.0000
95.7500 45.0000
95.7600 20.0000
95.7700 30.0000
95.7800 40.0000
95.7900 25.0000
95.8000 30.0000
95.8100 40.0000
95.8200 35.0000
95.8300 30.0000
95.8400 35.0000
95.8500 30.0000
95.8600 50.0000
95.8700 40.0000
95.8800 25.0000
95.8900 40.0000
95.9000 30.0000
95.9100 35.0000
95.9200 40.0000
95.9300 65.0000
95.9400 25.0000
95.9500 30.0000
95.9600 45.0000
95.9700 30.0000
95.9800 25.0000
95.9900 20.0000
96.0000 40.0000
96.0100 25.0000
96.0200 30.0000
96.0300 35.0000
96.0400 30.0000
96.0500 45.0000
96.0600 20.0000
96.0700 35.0000
96.0800 25.0000
96.0900 15.0000
96.1000 25.0000
96.1100 30.0000
96.1200 15.0000
96.1300 30.0000
96.1400 30.0000
96.1500 40.0000
96.1600 20.0000
96.1700 30.0000
96.1800 45.0000
96.1900 35.0000
96.2000 25.0000
96.2100 30.0000
96.2200 25.0000
96.2300 25.0000
96.2400 30.0000
96.2500 15.0000
96.2600 20.0000
96.2700 40.0000
96.2800 35.0000
96.2900 20.0000
96.3000 30.0000
96.3100 50.0000
96.3200 25.0000
96.3300 35.0000
96.3400 60.0000
96.3500 30.0000
96.3600 20.0000
96.3700 25.0000
96.3800 35.0000
96.3900 15.0000
96.4000 55.0000
96.4100 25.0000
96.4200 25.0000
96.4300 40.0000
96.4400 40.0000
96.4500 20.0000
96.4600 30.0000
96.4700 20.0000
96.4800 20.0000
96.4900 35.0000
96.5000 45.0000
96.5100 40.0000
96.5200 30.0000
96.5300 50.0000
96.5400 15.0000
96.5500 10.0000
96.5600 35.0000
96.5700 35.0000
96.5800 35.0000
96.5900 15.0000
96.6000 40.0000
96.6100 35.0000
96.6200 20.0000
96.6300 20.0000
96.6400 35.0000
96.6500 35.0000
96.6600 40.0000
96.6700 40.0000
96.6800 35.0000
96.6900 40.0000
96.7000 25.0000
96.7100 45.0000
96.7200 35.0000
96.7300 40.0000
96.7400 50.0000
96.7500 50.0000
96.7600 60.0000
96.7700 50.0000
96.7800 35.0000
96.7900 65.0000
96.8000 85.0000
96.8100 75.0000
96.8200 105.0000
96.8300 105.0000
96.8400 135.0000
96.8500 160.0000
96.8600 130.0000
96.8700 165.0000
96.8800 220.0000
96.8900 180.0000
96.9000 140.0000
96.9100 75.0000
96.9200 80.0000
96.9300 100.0000
96.9400 105.0000
96.9500 75.0000
96.9600 60.0000
96.9700 55.0000
96.9800 70.0000
96.9900 30.0000
97.0000 45.0000
97.0100 30.0000
97.0200 45.0000
97.0300 30.0000
97.0400 55.0000
97.0500 35.0000
97.0600 40.0000
97.0700 40.0000
97.0800 40.0000
97.0900 25.0000
97.1000 30.0000
97.1100 30.0000
97.1200 30.0000
97.1300 15.0000
97.1400 15.0000
97.1500 30.0000
97.1600 10.0000
97.1700 15.0000
97.1800 25.0000
97.1900 45.0000
97.2000 15.0000
97.2100 15.0000
97.2200 40.0000
97.2300 20.0000
97.2400 10.0000
97.2500 15.0000
97.2600 15.0000
97.2700 20.0000
97.2800 15.0000
97.2900 15.0000
97.3000 20.0000
97.3100 45.0000
97.3200 35.0000
97.3300 40.0000
97.3400 15.0000
97.3500 0.0000
97.3600 25.0000
97.3700 20.0000
97.3800 25.0000
97.3900 20.0000
97.4000 25.0000
97.4100 25.0000
97.4200 30.0000
97.4300 15.0000
97.4400 25.0000
97.4500 10.0000
97.4600 15.0000
97.4700 35.0000
97.4800 15.0000
97.4900 15.0000
97.5000 10.0000
97.5100 20.0000
97.5200 0.0000
97.5300 5.0000
97.5400 35.0000
97.5500 15.0000
97.5600 25.0000
97.5700 35.0000
97.5800 35.0000
97.5900 40.0000
97.6000 45.0000
97.6100 35.0000
97.6200 15.0000
97.6300 15.0000
97.6400 15.0000
97.6500 35.0000
97.6600 45.0000
97.6700 50.0000
97.6800 35.0000
97.6900 35.0000
97.7000 45.0000
97.7100 60.0000
97.7200 30.0000
97.7300 40.0000
97.7400 75.0000
97.7500 80.0000
97.7600 50.0000
97.7700 75.0000
97.7800 105.0000
97.7900 80.0000
97.8000 90.0000
97.8100 125.0000
97.8200 145.0000
97.8300 125.0000
97.8400 215.0000
97.8500 130.0000
97.8600 180.0000
97.8700 220.0000
97.8800 150.0000
97.8900 145.0000
97.9000 120.0000
97.9100 110.0000
97.9200 95.0000
97.9300 90.0000
97.9400 85.0000
97.9500 60.0000
97.9600 80.0000
97.9700 55.0000
97.9800 60.0000
97.9900 40.0000
98.0000 45.0000
98.0100 45.0000
98.0200 25.0000
98.0300 5.0000
98.0400 50.0000
98.0500 30.0000
98.0600 30.0000
98.0700 45.0000
98.0800 55.0000
98.0900 40.0000
98.1000 55.0000
98.1100 50.0000
98.1200 70.0000
98.1300 45.0000
98.1400 35.0000
98.1500 55.0000
98.1600 50.0000
98.1700 50.0000
98.1800 40.0000
98.1900 60.0000
98.2000 60.0000
98.2100 65.0000
98.2200 75.0000
98.2300 50.0000
98.2400 60.0000
98.2500 55.0000
98.2600 65.0000
98.2700 35.0000
98.2800 55.0000
98.2900 20.0000
98.3000 35.0000
98.3100 45.0000
98.3200 40.0000
98.3300 30.0000
98.3400 30.0000
98.3500 40.0000
98.3600 20.0000
98.3700 40.0000
98.3800 25.0000
98.3900 15.0000
98.4000 35.0000
98.4100 45.0000
98.4200 45.0000
98.4300 30.0000
98.4400 40.0000
98.4500 50.0000
98.4600 25.0000
98.4700 30.0000
98.4800 35.0000
98.4900 10.0000
98.5000 40.0000
98.5100 20.0000
98.5200 30.0000
98.5300 40.0000
98.5400 45.0000
98.5500 35.0000
98.5600 15.0000
98.5700 35.0000
98.5800 25.0000
98.5900 25.0000
98.6000 35.0000
98.6100 35.0000
98.6200 25.0000
98.6300 15.0000
98.6400 35.0000
98.6500 35.0000
98.6600 40.0000
98.6700 45.0000
98.6800 45.0000
98.6900 30.0000
98.7000 30.0000
98.7100 35.0000
98.7200 45.0000
98.7300 40.0000
98.7400 30.0000
98.7500 35.0000
98.7600 35.0000
98.7700 15.0000
98.7800 15.0000
98.7900 40.0000
98.8000 20.0000
98.8100 35.0000
98.8200 30.0000
98.8300 35.0000
98.8400 30.0000
98.8500 25.0000
98.8600 15.0000
98.8700 35.0000
98.8800 40.0000
98.8900 30.0000
98.9000 20.0000
98.9100 20.0000
98.9200 20.0000
98.9300 60.0000
98.9400 35.0000
98.9500 30.0000
98.9600 15.0000
98.9700 20.0000
98.9800 10.0000
98.9900 20.0000
99.0000 30.0000
99.0100 30.0000
99.0200 20.0000
99.0300 50.0000
99.0400 60.0000
99.0500 20.0000
99.0600 40.0000
99.0700 15.0000
99.0800 30.0000
99.0900 15.0000
99.1000 50.0000
99.1100 15.0000
99.1200 20.0000
99.1300 20.0000
99.1400 25.0000
99.1500 20.0000
99.1600 20.0000
99.1700 45.0000
99.1800 10.0000
99.1900 25.0000
99.2000 30.0000
99.2100 35.0000
99.2200 15.0000
99.2300 30.0000
99.2400 0.0000
99.2500 10.0000
99.2600 15.0000
99.2700 10.0000
99.2800 25.0000
99.2900 50.0000
99.3000 45.0000
99.3100 25.0000
99.3200 15.0000
99.3300 45.0000
99.3400 40.0000
99.3500 30.0000
99.3600 25.0000
99.3700 25.0000
99.3800 25.0000
99.3900 25.0000
99.4000 20.0000
99.4100 30.0000
99.4200 15.0000
99.4300 10.0000
99.4400 40.0000
99.4500 10.0000
99.4600 35.0000
99.4700 35.0000
99.4800 20.0000
99.4900 15.0000
99.5000 35.0000
99.5100 15.0000
99.5200 15.0000
99.5300 20.0000
99.5400 20.0000
99.5500 20.0000
99.5600 20.0000
99.5700 25.0000
99.5800 30.0000
99.5900 25.0000
99.6000 15.0000
99.6100 25.0000
99.6200 10.0000
99.6300 20.0000
99.6400 40.0000
99.6500 35.0000
99.6600 25.0000
99.6700 15.0000
99.6800 15.0000
99.6900 15.0000
99.7000 10.0000
99.7100 20.0000
99.7200 10.0000
99.7300 20.0000
99.7400 15.0000
99.7500 25.0000
99.7600 20.0000
99.7700 35.0000
99.7800 25.0000
99.7900 40.0000
99.8000 45.0000
99.8100 30.0000
99.8200 15.0000
99.8300 40.0000
99.8400 20.0000
99.8500 30.0000
99.8600 35.0000
99.8700 25.0000
99.8800 35.0000
99.8900 55.0000
99.9000 30.0000
99.9100 20.0000
99.9200 15.0000
99.9300 15.0000
99.9400 25.0000
99.9500 10.0000
99.9600 40.0000
99.9700 25.0000
99.9800 25.0000
99.9900 20.0000
100.0000 30.0000
